loggingTime,loggingSample,locationTimestamp_since1970,locationLatitude,locationLongitude,locationAltitude,locationSpeed,locationCourse,locationVerticalAccuracy,locationHorizontalAccuracy,locationFloor,locationHeadingTimestamp_since1970,locationHeadingX,locationHeadingY,locationHeadingZ,locationTrueHeading,locationMagneticHeading,locationHeadingAccuracy,accelerometerTimestamp_sinceReboot,accelerometerAccelerationX,accelerometerAccelerationY,accelerometerAccelerationZ,gyroTimestamp_sinceReboot,gyroRotationX,gyroRotationY,gyroRotationZ,motionTimestamp_sinceReboot,motionYaw,motionRoll,motionPitch,motionRotationRateX,motionRotationRateY,motionRotationRateZ,motionUserAccelerationX,motionUserAccelerationY,motionUserAccelerationZ,motionAttitudeReferenceFrame,motionQuaternionX,motionQuaternionY,motionQuaternionZ,motionQuaternionW,motionGravityX,motionGravityY,motionGravityZ,motionMagneticFieldX,motionMagneticFieldY,motionMagneticFieldZ,motionMagneticFieldCalibrationAccuracy,IP_en0,IP_pdp_ip0,deviceOrientation,state
2015-02-27 20:22:37.130,1,1425097352.397768,37.78771765318985,-122.3967838202534,12.38992,-1,-1,10,65,-9999,1425097357.120408,16.62326431274414,-29.29640197753906,-9.489151000976562,246.8040771484375,233.0307769775391,10,139384.41908175,-0.072509765625,-0.73663330078125,-0.7108917236328125,139384.3771324584,-0.07792569139237256,-0.6928722239609343,0.1815405009757585,139384.3771324584,2.345210495617252,-0.1427139678323487,0.8150699733999786,-0.08391705900430679,-0.682508111000061,0.2190255671739578,0.00586902117356658,-0.09758956730365753,-0.01956484466791153,XTrueNorthZVertical,0.213629415737117,0.3390278418410423,0.8331612412786088,0.3811363564490896,-0.09754382818937302,-0.7277736067771912,-0.6788451671600342,17.63389587402344,-31.76185035705566,-9.128269195556641,2,10.3.35.51,10.83.46.32,1,0
2015-02-27 20:22:37.195,2,1425097352.397768,37.78771765318985,-122.3967838202534,12.38992,-1,-1,10,65,-9999,1425097357.171274,15.94146728515625,-29.43234252929688,-10.22147369384766,247.2599334716797,233.4866333007812,10,139384.4681261667,-0.1826934814453125,-0.6943511962890625,-0.6691741943359375,139384.4289138333,-0.01262258461864857,-0.9482648451256801,-0.02985989477418644,139384.4289138333,2.339412366876377,-0.1722807022932236,0.8133035899746968,-0.01863414607942104,-0.9379169940948486,0.007671711035072803,0.07912392914295197,0.0597672164440155,-0.02891076356172562,XTrueNorthZVertical,0.2266002577002345,0.3319445323683183,0.8291373068821071,0.388582626946997,-0.117789700627327,-0.7265610098838806,-0.67693030834198,17.09622192382812,-31.88444519042969,-9.705472946166992,2,10.3.35.51,10.83.46.32,1,0
2015-02-27 20:22:37.219,3,1425097352.397768,37.78771765318985,-122.3967838202534,12.38992,-1,-1,10,65,-9999,1425097357.171274,15.94146728515625,-29.43234252929688,-10.22147369384766,247.2599334716797,233.4866333007812,10,139384.517262875,-0.2071380615234375,-0.70819091796875,-0.6568603515625,139384.4806957083,-0.005424859140491408,-0.5236328640602519,-0.06628022057767406,139384.4806957083,2.339421433620367,-0.2072040859783147,0.8116924012855946,-0.01143649965524673,-0.513285219669342,-0.0287490040063858,-0.04419660568237305,0.02350297197699547,0.0088003259152174,XTrueNorthZVertical,0.2407845818584003,0.3244195574249452,0.8253774553888765,0.3943688286655487,-0.141594409942627,-0.7254530191421509,-0.673549473285675,16.67181205749512,-31.78372764587402,-10.72101497650146,2,10.3.35.51,10.83.46.32,1,0
2015-02-27 20:22:37.291,4,1425097352.397768,37.78771765318985,-122.3967838202534,12.38992,-1,-1,10,65,-9999,1425097357.276114,15.34488677978516,-29.65322875976562,-11.03701019287109,248.3331756591797,234.5598754882812,10,139384.5662130833,-0.1562347412109375,-0.725341796875,-0.6815643310546875,139384.5324772084,0.1135531941393436,-0.1044273400319691,-0.1272282600207915,139384.5324772084,2.338722858490923,-0.2237897810391922,0.8144532459353223,0.107539027929306,-0.09408819675445557,-0.08968690782785416,-0.0582859106361866,0.01706911623477936,0.009454538114368916,XTrueNorthZVertical,0.2481693270291194,0.3222351206994523,0.8226589309236628,0.3972515279631224,-0.1523006409406662,-0.7273504734039307,-0.6691530346870422,16.51596641540527,-31.78216743469238,-10.96409797668457,2,10.3.35.51,10.83.46.32,1,0
2015-02-27 20:22:37.316,5,1425097352.397768,37.78771765318985,-122.3967838202534,12.38992,-1,-1,10,65,-9999,1425097357.276114,15.34488677978516,-29.65322875976562,-11.03701019287109,248.3331756591797,234.5598754882812,10,139384.6153470833,-0.1553955078125,-0.760833740234375,-0.6771240234375,139384.5842584583,0.1391903806891004,-0.0708390197316717,-0.04127420320626605,139384.5842584583,2.336916557017014,-0.2233816462700606,0.8209385615245899,0.1331746131181717,-0.06050051003694534,-0.003733044490218163,-0.000815073843114078,-0.00339790154248476,-0.01656641252338886,XTrueNorthZVertical,0.2493180500720623,0.3248690731416315,0.8210418490511621,0.3977321439345666,-0.1509793549776077,-0.7317858338356018,-0.66460120677948,16.50334358215332,-31.78757095336914,-10.96743965148926,2,10.3.35.51,10.83.46.32,1,0
2015-02-27 20:22:37.396,6,1425097352.397768,37.78771765318985,-122.3967838202534,12.38992,-1,-1,10,65,-9999,1425097357.37939,15.65170669555664,-29.75517272949219,-10.50440979003906,248.6104888916016,234.8371887207031,10,139384.6642865833,-0.1921539306640625,-0.748260498046875,-0.6646575927734375,139384.6360404583,0.1277955133329784,-0.208715396738927,0.02583346152209563,139384.6360404583,2.341580009872023,-0.2349605953366694,0.827606172483339,0.1217805072665215,-0.1983761787414551,0.06337334215641022,-0.015326545573771,-0.02801427990198135,-0.009019882418215275,XTrueNorthZVertical,0.254351621452222,0.326007596737332,0.8191532761759596,0.3975074724481832,-0.1575250178575516,-0.7363137006759644,-0.6580485701560974,16.44698715209961,-31.89134979248047,-10.74863529205322,2,10.3.35.51,10.83.46.32,1,0
2015-02-27 20:22:37.414,7,1425097352.397768,37.78771765318985,-122.3967838202534,12.38992,-1,-1,10,65,-9999,1425097357.37939,15.65170669555664,-29.75517272949219,-10.50440979003906,248.6104888916016,234.8371887207031,10,139384.7133917084,-0.158447265625,-0.74176025390625,-0.65887451171875,139384.6878217083,0.0702539232401813,-0.04060654872098318,0.0008988168679017429,139384.6878217083,2.348828672482589,-0.2470510956800034,0.8313246856177072,0.06423933058977127,-0.03027050942182541,0.0384424515068531,-0.02331161126494408,-0.002615097677335143,-0.006902753375470638,XTrueNorthZVertical,0.2586912184032217,0.3261296558742723,0.8182763692791881,0.3964114851356241,-0.1647987365722656,-0.738824725151062,-0.6534366011619568,16.3086109161377,-31.97098922729492,-10.72286415100098,2,10.3.35.51,10.83.46.32,1,0
2015-02-27 20:22:37.494,8,1425097352.397768,37.78771765318985,-122.3967838202534,12.38992,-1,-1,10,65,-9999,1425097357.483276,15.24262619018555,-29.41534423828125,-10.7374267578125,249.1275024414062,235.3542022705078,10,139384.7623573334,-0.1225128173828125,-0.7391204833984375,-0.6421051025390625,139384.7396032083,0.00114808874593316,0.009083243529933258,-0.03937457040071253,139384.7396032083,2.349427540195795,-0.2462853361283443,0.8320587797415098,-0.004866231698542833,0.0194203294813633,-0.001832707086578012,0.02137429267168045,-0.00152549974154681,-0.003701851470395923,XTrueNorthZVertical,0.2583919437827738,0.3266732135550109,0.8183423117195676,0.3960227982970826,-0.164166048169136,-0.7393192052841187,-0.6530364155769348,16.20275115966797,-32.03972625732422,-10.67808818817139,2,10.3.35.51,10.83.46.32,1,0
2015-02-27 20:22:37.513,9,1425097352.397768,37.78771765318985,-122.3967838202534,12.38992,-1,-1,10,65,-9999,1425097357.483276,15.24262619018555,-29.41534423828125,-10.7374267578125,249.1275024414062,235.3542022705078,10,139384.811406,-0.12127685546875,-0.7324981689453125,-0.6295928955078125,139384.7913849583,-0.01079325926587314,-0.04862346255044871,-0.06236058008529544,139384.7396032083,2.349427540195795,-0.2462853361283443,0.8320587797415098,-0.004866231698542833,0.0194203294813633,-0.001832707086578012,0.02137429267168045,-0.00152549974154681,-0.003701851470395923,XTrueNorthZVertical,0.2583919437827738,0.3266732135550109,0.8183423117195676,0.3960227982970826,-0.164166048169136,-0.7393192052841187,-0.6530364155769348,16.20275115966797,-32.03972625732422,-10.67808818817139,2,10.3.35.51,10.83.46.32,1,0
2015-02-27 20:22:37.591,10,1425097352.397768,37.78771765318985,-122.3967838202534,12.38992,-1,-1,10,65,-9999,1425097357.535352,15.08921432495117,-29.67022705078125,-10.75406646728516,248.7765045166016,235.0032043457031,10,139384.8604610417,-0.128570556640625,-0.7309417724609375,-0.62255859375,139384.8431664583,0.03121251429183768,-0.09108969666063423,-0.08215798699672648,139384.8431664583,2.341989019111508,-0.2425883692390697,0.8334004623509096,0.02520280331373215,-0.08074408769607544,-0.04462722316384315,0.03358256071805954,0.002367985900491476,0.02302147634327412,XTrueNorthZVertical,0.258301548046481,0.3270208050360726,0.8170652466297353,0.3984244810350083,-0.1615122407674789,-0.7402219772338867,-0.6526753902435303,16.31513595581055,-31.97797393798828,-10.69207191467285,2,10.3.35.51,10.83.46.32,1,0
2015-02-27 20:22:37.611,11,1425097352.397768,37.78771765318985,-122.3967838202534,12.38992,-1,-1,10,65,-9999,1425097357.586933,15.6346549987793,-29.87411499023438,-10.88723754882812,249.1427154541016,235.3694152832031,10,139384.909498625,-0.136474609375,-0.7417449951171875,-0.6301727294921875,139384.89494775,0.06588660536856035,-0.1416564678585138,-0.1225331070189818,139384.89494775,2.336652545536692,-0.2427992832165924,0.8372662739188257,0.05987964943051338,-0.1313068568706512,-0.08500748872756958,0.0270038079470396,0.003191655734553933,0.01477277185767889,XTrueNorthZVertical,0.2598588143518687,0.327938989607499,0.8151720224105353,0.4005296125953068,-0.1609607189893723,-0.7428156733512878,-0.649858832359314,16.37307357788086,-31.95149230957031,-10.68267154693604,2,10.3.35.51,10.83.46.32,1,0
2015-02-27 20:22:37.690,12,1425097352.397768,37.78771765318985,-122.3967838202534,12.38992,-1,-1,10,65,-9999,1425097357.638767,15.71987915039062,-30.12899780273438,-10.70414733886719,249.2788238525391,235.5055236816406,10,139384.9585546667,-0.15667724609375,-0.7470550537109375,-0.6354217529296875,139384.9467297083,0.0584001932282386,-0.1232945047746354,-0.1303225868913545,139384.9467297083,2.328195029644348,-0.2414386728544897,0.8429297409398241,0.05239837989211082,-0.1129383593797684,-0.09280482679605484,0.01322442479431629,0.005781205371022224,0.009919318370521069,XTrueNorthZVertical,0.2615774220192382,0.3295243271891189,0.8124724793787496,0.4035832272533756,-0.1590679287910461,-0.7465954422950745,-0.6459819674491882,16.59535026550293,-31.86034774780273,-10.61166572570801,2,10.3.35.51,10.83.46.32,1,0
2015-02-27 20:22:37.707,13,1425097352.397768,37.78771765318985,-122.3967838202534,12.38992,-1,-1,10,65,-9999,1425097357.690359,15.71987533569336,-29.99305725097656,-10.53770446777344,249.4355926513672,235.6622924804688,10,139385.0075753334,-0.1479339599609375,-0.752227783203125,-0.643890380859375,139384.9985111667,0.02855388057561158,-0.06460296172314216,-0.1476523087367182,139384.9467297083,2.328195029644348,-0.2414386728544897,0.8429297409398241,0.05239837989211082,-0.1129383593797684,-0.09280482679605484,0.01322442479431629,0.005781205371022224,0.009919318370521069,XTrueNorthZVertical,0.2615774220192382,0.3295243271891189,0.8124724793787496,0.4035832272533756,-0.1590679287910461,-0.7465954422950745,-0.6459819674491882,16.59535026550293,-31.86034774780273,-10.61166572570801,2,10.3.35.51,10.83.46.32,1,0
2015-02-27 20:22:37.791,14,1425097352.397768,37.78771765318985,-122.3967838202534,12.38992,-1,-1,10,65,-9999,1425097357.741777,15.77101516723633,-30.11203002929688,-10.55434417724609,249.5314178466797,235.7581176757812,10,139385.0566325,-0.1580047607421875,-0.7505950927734375,-0.645538330078125,139385.0502925417,0.003980893197450445,-0.06105989220890074,-0.1281262779403662,139385.0502925417,2.312492288613851,-0.2352245228137395,0.8483732029607511,-0.002019292674958706,-0.05070089176297188,-0.09061308205127716,-0.001340096583589911,-0.0004503750533331186,-0.001138301566243172,XTrueNorthZVertical,0.2625136431188526,0.3310415038079679,0.8089631562440451,0.4087501715724091,-0.1541011929512024,-0.7502057552337646,-0.6429961919784546,16.82813835144043,-31.74832534790039,-10.58075332641602,2,10.3.35.51,10.83.46.32,1,0
2015-02-27 20:22:37.806,15,1425097352.397768,37.78771765318985,-122.3967838202534,12.38992,-1,-1,10,65,-9999,1425097357.79391,16.00964736938477,-29.77218627929688,-10.82065582275391,249.6199798583984,235.8466796875,10,139385.1056650833,-0.14996337890625,-0.7440948486328125,-0.6389007568359375,139385.0502925417,0.003980893197450445,-0.06105989220890074,-0.1281262779403662,139385.0502925417,2.312492288613851,-0.2352245228137395,0.8483732029607511,-0.002019292674958706,-0.05070089176297188,-0.09061308205127716,-0.001340096583589911,-0.0004503750533331186,-0.001138301566243172,XTrueNorthZVertical,0.2625136431188526,0.3310415038079679,0.8089631562440451,0.4087501715724091,-0.1541011929512024,-0.7502057552337646,-0.6429961919784546,16.82813835144043,-31.74832534790039,-10.58075332641602,2,10.3.35.51,10.83.46.32,1,0
2015-02-27 20:22:37.889,16,1425097352.397768,37.78771765318985,-122.3967838202534,12.38992,-1,-1,10,65,-9999,1425097357.845818,16.21419143676758,-29.53431701660156,-10.48778533935547,249.718994140625,235.9456939697266,10,139385.1547083333,-0.1426544189453125,-0.7370758056640625,-0.637664794921875,139385.1538557917,0.007639810219110311,-0.0573780720018662,-0.1331186397198287,139385.1020742083,2.305760638753206,-0.2324927711700351,0.8485548265930991,-0.0156455971300602,-0.03232467919588089,-0.09594505280256271,0.0007471608696505427,0.004125269129872322,0.002229940379038453,XTrueNorthZVertical,0.2625524787012011,0.3307946532778556,0.8079042942544651,0.4110130479724549,-0.1523127108812332,-0.7503258585929871,-0.6432821750640869,17.01547241210938,-31.62044525146484,-10.66377449035645,2,10.3.35.51,10.83.46.32,1,0
2015-02-27 20:22:37.903,17,1425097352.397768,37.78771765318985,-122.3967838202534,12.38992,-1,-1,10,65,-9999,1425097357.897915,15.99260711669922,-29.00753784179688,-10.43785095214844,249.8448028564453,236.0715026855469,10,139385.2037349583,-0.141998291015625,-0.7356719970703125,-0.630615234375,139385.2056371667,0.01868846663352204,-0.0584001932282386,-0.1514608954116405,139385.1538557917,2.297882189086224,-0.2280352958286415,0.8492777719270121,0.001638288726098835,-0.04701855406165123,-0.09560743719339371,0.007994224317371845,0.007029136642813683,0.007577154319733381,XTrueNorthZVertical,0.2621744198072008,0.3309856444251357,0.8067147384809497,0.4134300285279503,-0.149321123957634,-0.750803530216217,-0.6434261798858643,17.10134887695312,-31.56400871276855,-10.69355297088623,2,10.3.35.51,10.83.46.32,1,0
2015-02-27 20:22:37.991,18,1425097352.397768,37.78771765318985,-122.3967838202534,12.38992,-1,-1,10,65,-9999,1425097357.94947,16.40168380737305,-29.51731872558594,-10.33798980712891,249.9365386962891,236.1632385253906,10,139385.2527826667,-0.133209228515625,-0.742523193359375,-0.627349853515625,139385.2056371667,0.01868846663352204,-0.0584001932282386,-0.1514608954116405,139385.2056371667,2.289958303410938,-0.2243543959221935,0.8507968945370223,0.01268648263067007,-0.0480399876832962,-0.1139512434601784,0.00469952542334795,0.0161341056227684,0.01224347483366728,XTrueNorthZVertical,0.2622536764720908,0.3313512556642306,0.8052385579128548,0.4159569693908369,-0.1466978192329407,-0.7518060803413391,-0.6428586840629578,17.23282623291016,-31.48118782043457,-10.7265682220459,2,10.3.35.51,10.83.46.32,1,0
2015-02-27 20:22:38.003,19,1425097352.397768,37.78771765318985,-122.3967838202534,12.38992,-1,-1,10,65,-9999,1425097357.94947,16.40168380737305,-29.51731872558594,-10.33798980712891,249.9365386962891,236.1632385253906,10,139385.3018077083,-0.1334228515625,-0.74322509765625,-0.62548828125,139385.2574188334,0.06157201808652298,-0.04389715056388509,-0.1726980072083684,139385.2574188334,2.280466913039375,-0.2190384822512101,0.8542880724407667,0.05557110160589218,-0.03353569656610489,-0.1351902782917023,0.009497956372797489,0.01158035174012184,0.013713707216084,XTrueNorthZVertical,0.2622749784089865,0.3326861210421319,0.8032294181444879,0.418753224920772,-0.1427071839570999,-0.7541035413742065,-0.6410635709762573,17.48984527587891,-31.33870697021484,-10.7277946472168,2,10.3.35.51,10.83.46.32,1,0
2015-02-27 20:22:38.091,20,1425097352.397768,37.78771765318985,-122.3967838202534,12.38992,-1,-1,10,65,-9999,1425097358.078216,16.75963592529297,-29.43238830566406,-10.28807067871094,250.2076721191406,236.4343719482422,10,139385.3508455417,-0.125335693359375,-0.7490997314453125,-0.625030517578125,139385.360981625,0.1031865732801012,-0.02638926324159517,-0.2307061831241473,139385.30920025,2.269910267818173,-0.2122956484055447,0.8596571292383663,0.08252148330211639,-0.0248618945479393,-0.1623704135417938,0.004103440325707197,0.01439371891319752,0.01255578733980656,XTrueNorthZVertical,0.2622432608604479,0.3349722937996913,0.800778855155779,0.4216340126733447,-0.1375262886285782,-0.7576188445091248,-0.6380440592765808,17.62639045715332,-31.27911376953125,-10.6781120300293,2,10.3.35.51,10.83.46.32,1,0
2015-02-27 20:22:38.100,21,1425097352.397768,37.78771765318985,-122.3967838202534,12.38992,-1,-1,10,65,-9999,1425097358.078216,16.75963592529297,-29.43238830566406,-10.28807067871094,250.2076721191406,236.4343719482422,10,139385.399974875,-0.111785888671875,-0.7581634521484375,-0.620147705078125,139385.360981625,0.1031865732801012,-0.02638926324159517,-0.2307061831241473,139385.360981625,2.256773226042455,-0.2031254211996281,0.8659660316412623,0.09718701988458633,-0.01602529361844063,-0.19320248067379,0.00991416908800602,0.008242511190474033,0.01048447284847498,XTrueNorthZVertical,0.2618757747951208,0.3378298040667232,0.7978859035721567,0.4250531354175743,-0.1307027488946915,-0.7617214918136597,-0.6345841884613037,17.84759140014648,-31.18481826782227,-10.58609199523926,2,10.3.35.51,10.83.46.32,1,0
2015-02-27 20:22:38.162,22,1425097352.397768,37.78771765318985,-122.3967838202534,12.38992,-1,-1,10,65,-9999,1425097358.130988,16.67440795898438,-29.41539001464844,-10.03841400146484,250.33935546875,236.5660552978516,10,139385.4489117917,-0.1082611083984375,-0.749908447265625,-0.6158447265625,139385.4127637083,0.1045146917157237,-0.04431899528055364,-0.2473807673413514,139385.4127637083,2.241837221464539,-0.1923354042891175,0.8730824232990061,0.0984964519739151,-0.03396901488304138,-0.209832638502121,0.008718822151422501,0.006043766159564257,0.01187681313604116,XTrueNorthZVertical,0.2613674649330963,0.3411402843979426,0.7946261209859307,0.4288119208580429,-0.1228087916970253,-0.7663129568099976,-0.6306207180023193,18.32351493835449,-30.97848129272461,-10.37677192687988,2,10.3.35.51,10.83.46.32,1,0
2015-02-27 20:22:38.198,23,1425097352.397768,37.78771765318985,-122.3967838202534,12.38992,-1,-1,10,65,-9999,1425097358.182236,16.94713592529297,-29.21145629882812,-10.17156219482422,252.7615966796875,238.9882965087891,10,139385.4979346667,-0.091064453125,-0.7649993896484375,-0.614044189453125,139385.4645449167,0.1181644575668158,-0.07265662717565079,-0.302957477181888,139385.4645449167,2.224176048348716,-0.1809623708326039,0.8805908785425816,0.1121457368135452,-0.06230555102229118,-0.2654112875461578,0.00788541603833437,0.01499644853174686,0.00523573812097311,XTrueNorthZVertical,0.2612383521795178,0.3443908215509706,0.7907399722459795,0.4334509922265483,-0.1145901307463646,-0.771115243434906,-0.6262989640235901,18.52544021606445,-30.88422393798828,-10.29891490936279,2,10.3.35.51,10.83.46.32,1,0
2015-02-27 20:22:38.263,24,1425097352.397768,37.78771765318985,-122.3967838202534,12.38992,-1,-1,10,65,-9999,1425097358.234303,17.06645202636719,-28.71865844726562,-10.55436706542969,254.4868316650391,240.7135314941406,10,139385.5469777083,-0.08642578125,-0.7541961669921875,-0.5885467529296875,139385.5163265417,0.1737062799970724,-0.1231357803736667,-0.360496670429704,139385.5163265417,2.201836623518227,-0.1673108715006561,0.8905206520013875,0.1676884889602661,-0.1127815768122673,-0.3229548037052155,0.012326973490417,0.01003484521061182,0.01275633368641138,XTrueNorthZVertical,0.261564196015217,0.3485285909554971,0.78558043547417,0.439289600420356,-0.1047494560480118,-0.7773993611335754,-0.6202239990234375,18.88069534301758,-30.7062873840332,-10.1851978302002,2,10.3.35.51,10.83.46.32,1,0
2015-02-27 20:22:38.296,25,1425097352.397768,37.78771765318985,-122.3967838202534,12.38992,-1,-1,10,65,-9999,1425097358.285899,17.71416473388672,-28.24285888671875,-10.68751525878906,256.7692565917969,242.9959716796875,10,139385.596001375,-0.0666351318359375,-0.742218017578125,-0.564208984375,139385.56810825,0.2499299451367753,-0.1463628061369018,-0.4676897032537204,139385.56810825,2.172631684059544,-0.1504638675715591,0.904477408409553,0.2439142465591431,-0.1360058486461639,-0.4301515519618988,0.01876761019229889,0.03477473556995392,0.03459016606211662,XTrueNorthZVertical,0.2627722457026181,0.3541105052778419,0.7784088539878813,0.4468065957003339,-0.09265066683292389,-0.7861022353172302,-0.6111130118370056,19.6285514831543,-30.32627105712891,-9.906162261962891,2,10.3.35.51,10.83.46.32,1,0
2015-02-27 20:22:38.362,26,1425097352.397768,37.78771765318985,-122.3967838202534,12.38992,-1,-1,10,65,-9999,1425097358.337695,18.41301727294922,-28.39581298828125,-10.40457916259766,258.1059265136719,244.3326416015625,10,139385.64504525,-0.122589111328125,-0.4829254150390625,-0.585235595703125,139385.61988975,0.3669929192767343,-0.2301892635565629,-0.6749526119341182,139385.61988975,2.133631874001436,-0.1290859352619001,0.9230937322475142,0.3609776496887207,-0.2198319882154465,-0.63741534948349,0.01327654626220465,0.1654530167579651,0.06266088783740997,XTrueNorthZVertical,0.2651796879973404,0.3612641226843627,0.7685382203928812,0.4566365639300549,-0.07766863703727722,-0.7974720597267151,-0.5983359217643738,19.99867630004883,-30.13370513916016,-9.752310752868652,2,10.3.35.51,10.83.46.32,1,0
2015-02-27 20:22:38.394,27,1425097352.397768,37.78771765318985,-122.3967838202534,12.38992,-1,-1,10,65,-9999,1425097358.389598,19.29936218261719,-28.15792846679688,-9.772109985351562,259.388671875,245.6153869628906,10,139385.6940642917,-0.213653564453125,-0.8514251708984375,-0.517578125,139385.6716710417,0.661603516970096,-0.4175777999700264,-0.788179036207709,139385.6716710417,2.074071759244204,-0.09697175746075062,0.9532408563430693,0.6555883288383484,-0.4072206020355225,-0.7506421208381653,-0.06809782981872559,0.1999094188213348,0.03762717917561531,XTrueNorthZVertical,0.2702154817988405,0.3725880548097772,0.7527411695386074,0.4706829585599092,-0.05606294050812721,-0.8152963519096375,-0.5763234496116638,20.73307418823242,-29.72104835510254,-9.481229782104492,2,10.3.35.51,10.83.46.32,1,0
2015-02-27 20:22:38.463,28,1425097352.397768,37.78771765318985,-122.3967838202534,12.38992,-1,-1,10,65,-9999,1425097358.441736,20.21978759765625,-27.68211364746094,-8.906639099121094,261.302734375,247.5294494628906,10,139385.74310725,-0.1048431396484375,-1.10443115234375,-0.42236328125,139385.7234530417,1.064705172202779,-0.8861330305780225,-1.037617095491147,139385.7234530417,2.007393797528714,-0.07367627897311729,1.000752817067888,1.058690071105957,-0.8757761716842651,-1.000080227851868,-0.1565947681665421,-0.09995599836111069,0.0569118857383728,XTrueNorthZVertical,0.2848002409909721,0.387022630672866,0.730062034503197,0.4859132770807599,-0.03972481563687325,-0.8418775200843811,-0.5382046103477478,22.13825225830078,-28.93991661071777,-8.687569618225098,2,10.3.35.51,10.83.46.32,1,0
2015-02-27 20:22:38.495,29,1425097352.397768,37.78771765318985,-122.3967838202534,12.38992,-1,-1,10,65,-9999,1425097358.441736,20.21978759765625,-27.68211364746094,-8.906639099121094,261.302734375,247.5294494628906,10,139385.792125625,-0.0164947509765625,-1.055328369140625,-0.45263671875,139385.7752342917,0.7867079060215493,-0.795909127587773,-0.8412363956570307,139385.7752342917,1.916254410992083,-0.04151314696048453,1.050427383100585,0.7806928753852844,-0.7855523824691772,-0.8036999106407166,0.006642110180109739,-0.2637271285057068,0.06449040770530701,XTrueNorthZVertical,0.302959776945825,0.3997867226923905,0.7017109576088616,0.5059522337842184,-0.02063442021608353,-0.8676357865333557,-0.496771901845932,22.79722785949707,-28.50609588623047,-8.413302421569824,2,10.3.35.51,10.83.46.32,1,0
2015-02-27 20:22:38.562,30,1425097352.397768,37.78771765318985,-122.3967838202534,12.38992,-1,-1,10,65,-9999,1425097358.545175,21.2254524230957,-27.01939392089844,-8.523834228515625,268.6317749023438,254.8584899902344,10,139385.841163375,-0.0660858154296875,-0.8994903564453125,-0.34368896484375,139385.827015875,0.5301043455091444,0.2459770151307707,-0.292169277922086,139385.827015875,1.871197341720494,-0.01789992995103808,1.083463730483915,0.5240885019302368,0.2563319802284241,-0.254630982875824,-0.04926614090800285,-0.07481947541236877,0.08388777822256088,XTrueNorthZVertical,0.3120970637880966,0.4104845947611325,0.6869329170178475,0.5120751592723093,-0.008381564170122147,-0.8835850954055786,-0.4681956470012665,23.58354759216309,-27.91814613342285,-8.215117454528809,2,10.3.35.51,10.83.46.32,1,0
2015-02-27 20:22:38.597,31,1425097352.397768,37.78771765318985,-122.3967838202534,12.38992,-1,-1,10,65,-9999,1425097358.545175,21.2254524230957,-27.01939392089844,-8.523834228515625,268.6317749023438,254.8584899902344,10,139385.8901761667,0.0499267578125,-0.7768707275390625,-0.341400146484375,139385.878797625,0.256609419466803,1.383874109888306,-0.298386427486876,139385.827015875,1.871197341720494,-0.01789992995103808,1.083463730483915,0.5240885019302368,0.2563319802284241,-0.254630982875824,-0.04926614090800285,-0.07481947541236877,0.08388777822256088,XTrueNorthZVertical,0.3120970637880966,0.4104845947611325,0.6869329170178475,0.5120751592723093,-0.008381564170122147,-0.8835850954055786,-0.4681956470012665,23.58354759216309,-27.91814613342285,-8.215117454528809,2,10.3.35.51,10.83.46.32,1,0
2015-02-27 20:22:38.662,32,1425097352.397768,37.78771765318985,-122.3967838202534,12.38992,-1,-1,10,65,-9999,1425097358.649308,23.06632232666016,-26.06777954101562,-6.02728271484375,270.1121826171875,256.3388977050781,10,139385.9392150417,0.18243408203125,-0.5796966552734375,-0.4024658203125,139385.9305792083,0.3197495068031647,1.050793883932641,-0.8124018179025247,139385.9305792083,1.789046722053766,0.1705190807836138,1.110800937464961,0.3137339651584625,1.061148524284363,-0.7748641967773438,0.06797595322132111,0.3016026318073273,0.02991257607936859,XTrueNorthZVertical,0.2723915675247195,0.4550276462745988,0.688378250267461,0.4948616378481018,0.07533459365367889,-0.8960545659065247,-0.4375053644180298,24.86633110046387,-27.51855278015137,-5.243061065673828,2,10.3.35.51,10.83.46.32,1,0
2015-02-27 20:22:38.696,33,1425097352.397768,37.78771765318985,-122.3967838202534,12.38992,-1,-1,10,65,-9999,1425097358.649308,23.06632232666016,-26.06777954101562,-6.02728271484375,270.1121826171875,256.3388977050781,10,139385.9882355417,0.1941375732421875,-0.7757110595703125,-0.3982391357421875,139385.9823604167,0.5231409782069143,0.09987573141291464,-1.103126064617134,139385.9305792083,1.789046722053766,0.1705190807836138,1.110800937464961,0.3137339651584625,1.061148524284363,-0.7748641967773438,0.06797595322132111,0.3016026318073273,0.02991257607936859,XTrueNorthZVertical,0.2723915675247195,0.4550276462745988,0.688378250267461,0.4948616378481018,0.07533459365367889,-0.8960545659065247,-0.4375053644180298,24.86633110046387,-27.51855278015137,-5.243061065673828,2,10.3.35.51,10.83.46.32,1,0
2015-02-27 20:22:38.747,34,1425097352.397768,37.78771765318985,-122.3967838202534,12.38992,-1,-1,10,65,-9999,1425097358.700695,24.19129943847656,-25.25210571289062,-4.595924377441406,270.5590515136719,256.7857666015625,10,139386.0373796667,0.0130462646484375,-0.9152374267578125,-0.361297607421875,139386.0341425,0.7375938891983079,-0.4565979036296494,-1.439300883759471,139385.9823604167,1.670594344503578,0.3056746076408592,1.119717571732069,0.5171254873275757,0.1102302968502045,-1.06558883190155,0.08342559635639191,0.1867510378360748,0.01845057494938374,XTrueNorthZVertical,0.2565163660418406,0.4757469394201457,0.6752155712718142,0.5019443364407075,0.1311892718076706,-0.8999773859977722,-0.4157284200191498,25.94893264770508,-26.77468299865723,-3.586651802062988,2,10.3.35.51,10.83.46.32,1,0
2015-02-27 20:22:38.793,35,1425097352.397768,37.78771765318985,-122.3967838202534,12.38992,-1,-1,10,65,-9999,1425097358.753447,25.57194900512695,-23.97761535644531,-3.780372619628906,273.0398254394531,259.2665405273438,10,139386.0862928334,-0.003753662109375,-0.7426300048828125,-0.2695465087890625,139386.0341425,0.7375938891983079,-0.4565979036296494,-1.439300883759471,139386.0341425,1.509854907343329,0.4355716483506388,1.127887243437385,0.7315784692764282,-0.4462434351444244,-1.401764035224915,-0.1422974020242691,-0.01221696473658085,0.02588275447487831,XTrueNorthZVertical,0.2549770868954397,0.4906219100308101,0.6495659677464756,0.5218628757531919,0.1808258444070816,-0.903508722782135,-0.388553649187088,28.11167907714844,-24.6372184753418,-2.415763854980469,2,10.3.35.51,10.83.46.32,1,0
2015-02-27 20:22:38.845,36,1425097352.397768,37.78771765318985,-122.3967838202534,12.38992,-1,-1,10,65,-9999,1425097358.808003,26.96964645385742,-22.48220825195312,-3.414207458496094,278.405517578125,264.6322326660156,10,139386.1354375833,0.1579742431640625,-0.5497894287109375,-0.1787109375,139386.13770525,0.05236919862364516,1.501336558191777,-1.741926531069535,139386.08592375,1.311272256704819,0.6114127496945829,1.120364203676196,0.6011752486228943,0.3647167086601257,-1.659305930137634,-0.2651020884513855,0.119298979640007,0.06455366313457489,XTrueNorthZVertical,0.2462007843708845,0.511021298039381,0.6192937123511099,0.5428790708394087,0.2499043345451355,-0.9002590775489807,-0.3564848005771637,29.13109588623047,-23.4453239440918,-2.188767433166504,2,10.3.35.51,10.83.46.32,1,0
2015-02-27 20:22:38.892,37,1425097352.397768,37.78771765318985,-122.3967838202534,12.38992,-1,-1,10,65,-9999,1425097358.881851,29.66276550292969,-19.72930908203125,-1.050804138183594,283.2181396484375,269.4448547363281,10,139386.1843527083,0.35955810546875,-0.59381103515625,-0.198638916015625,139386.13770525,0.05236919862364516,1.501336558191777,-1.741926531069535,139386.13770525,1.149057030504134,0.8073923052807903,1.077293925517852,0.04635389521718025,1.511690855026245,-1.704390406608582,-0.184277281165123,0.3308897018432617,0.1488072127103806,XTrueNorthZVertical,0.2127545946839237,0.5394222927591439,0.5981460566098815,0.55315490458385,0.3422515392303467,-0.8806791305541992,-0.3275181353092194,30.79314422607422,-21.29506683349609,-1.181941986083984,2,10.3.35.51,10.83.46.32,1,0
2015-02-27 20:22:38.943,38,1425097352.397768,37.78771765318985,-122.3967838202534,12.38992,-1,-1,10,65,-9999,1425097358.933342,31.23091506958008,-17.21429443359375,1.5123291015625,284.2542419433594,270.48095703125,10,139386.2333857917,0.609527587890625,-0.569183349609375,-0.2396087646484375,139386.2412684583,-0.2210258588778183,2.456943738442805,-1.402266433008611,139386.1894870417,1.058532182192569,0.9835027752618357,0.9977258238112672,-0.3998424410820007,2.148400783538818,-1.959412932395935,-0.09180480241775513,0.2464290261268616,0.1018076315522194,XTrueNorthZVertical,0.1546896669725068,0.5708308281353943,0.5858219302411092,0.5541082201326266,0.4513629078865051,-0.8402400612831116,-0.3004465401172638,33.20925903320312,-17.12835502624512,2.619027137756348,2,10.3.35.51,10.83.46.32,1,0
2015-02-27 20:22:39.008,39,1425097352.397768,37.78771765318985,-122.3967838202534,12.38992,-1,-1,10,65,-9999,1425097358.933342,31.23091506958008,-17.21429443359375,1.5123291015625,284.2542419433594,270.48095703125,10,139386.2824025,0.9088592529296875,-0.5969696044921875,-0.255706787109375,139386.2412684583,-0.2210258588778183,2.456943738442805,-1.402266433008611,139386.2412684583,1.007857347800684,1.141646577468731,0.9141818284890612,-0.2270410507917404,2.467297792434692,-1.364730954170227,0.05444345995783806,0.2228800654411316,0.01439347863197327,XTrueNorthZVertical,0.09108219158582373,0.6039063772974131,0.573425135720297,0.5460629236153726,0.5550841093063354,-0.7920634150505066,-0.2540022432804108,33.90815734863281,-15.22085094451904,4.65374755859375,2,10.3.35.51,10.83.46.32,1,0
2015-02-27 20:22:39.043,40,1425097359.002668,37.78774709175147,-122.3968596612326,12.39598,-1,-1,10,65,-9999,1425097358.994987,32.23657608032227,-14.10455322265625,4.225257873535156,285.7267761230469,271.9534912109375,10,139386.3314365417,0.839935302734375,-0.66668701171875,-0.22979736328125,139386.293049875,0.04048883700080168,1.515575681592104,-0.9349461101980848,139386.293049875,0.9849787783895745,1.266926551818837,0.8674053468404341,0.0344737134873867,1.525929570198059,-0.8974111080169678,0.326825737953186,0.152881532907486,-0.07328072190284729,XTrueNorthZVertical,0.04448020829491824,0.6334463516178369,0.5649936115905222,0.5268296029474452,0.617174506187439,-0.7626532912254333,-0.1935344636440277,32.45279312133789,-15.42557621002197,3.681458473205566,2,10.3.35.51,10.83.46.32,1,0
2015-02-27 20:22:39.100,41,1425097359.002668,37.78774709175147,-122.3968596612326,12.39598,-1,-1,10,65,-9999,1425097359.063301,33.02064895629883,-10.90982055664062,7.886878967285156,287.179443359375,273.4061584472656,10,139386.3804507917,0.670135498046875,-0.634307861328125,-0.1454925537109375,139386.3448319167,-0.128086064207906,-0.008935704405542868,-0.6808725527212554,139386.3448319167,0.9701004233407455,1.304160419457098,0.8280753039307478,-0.1341011226177216,0.001418133266270161,-0.6433379650115967,0.1404655575752258,0.07365194708108902,-0.02180157974362373,XTrueNorthZVertical,0.02384630077601438,0.6405729228918746,0.5552520182058568,0.5298989164578052,0.6523963809013367,-0.7366310954093933,-0.1781953722238541,32.88759994506836,-13.29382705688477,6.809206008911133,2,10.3.35.51,10.83.46.32,1,0
2015-02-27 20:22:39.144,42,1425097359.002668,37.78774709175147,-122.3968596612326,12.39598,-1,-1,10,65,-9999,1425097359.115717,33.1229133605957,-10.02615356445312,8.752349853515625,287.4325866699219,273.6593017578125,10,139386.4294752917,0.7831268310546875,-0.7074127197265625,-0.1373443603515625,139386.3966132083,-0.4282331074914334,0.5001610937928385,-0.3678123739441517,139386.3966132083,0.9811141799070316,1.3049923125226,0.802209123657929,-0.4342481195926666,0.5105148553848267,-0.3302780985832214,0.004279037471860647,0.08614198863506317,0.05077707767486572,XTrueNorthZVertical,0.01029800752775071,0.6392144183120061,0.553729939947046,0.533556007422853,0.6707087755203247,-0.7188934683799744,-0.1825977563858032,33.11628723144531,-12.74252891540527,6.754627704620361,2,10.3.35.51,10.83.46.32,1,0
2015-02-27 20:22:39.196,43,1425097359.002668,37.78774709175147,-122.3968596612326,12.39598,-1,-1,10,65,-9999,1425097359.171261,32.76496505737305,-9.12548828125,9.235015869140625,287.4111328125,273.6378479003906,10,139386.4784830833,0.815887451171875,-0.727752685546875,-0.1773834228515625,139386.448394625,-0.7294379583599403,1.189759227509629,0.02754108041305444,139386.448394625,1.020972450187275,1.325742613286468,0.7889669494930756,-0.7353990077972412,1.20006263256073,0.06513968110084534,0.1177710890769958,-0.01502936519682407,0.02527634613215923,XTrueNorthZVertical,-0.01326535651018894,0.6437046348732913,0.5619072619922096,0.5193540057297057,0.6835289597511292,-0.709625780582428,-0.1709367483854294,33.17902374267578,-12.34064865112305,7.179572582244873,2,10.3.35.51,10.83.46.32,1,0
2015-02-27 20:22:39.245,44,1425097359.002668,37.78774709175147,-122.3968596612326,12.39598,-1,-1,10,65,-9999,1425097359.221584,32.40702056884766,-9.312408447265625,10.3834228515625,284.8666687011719,271.0933837890625,10,139386.5275145833,0.9100799560546875,-0.7678985595703125,-0.1549530029296875,139386.5001765,-0.8256395927329816,0.4717946997579685,0.1962933481503614,139386.5001765,1.079182276078143,1.329043980755758,0.7871623563364559,-0.8316006064414978,0.4820979237556458,0.2338915318250656,0.160279780626297,-0.001851925160735846,-0.01177007332444191,XTrueNorthZVertical,-0.03361653982177414,0.6437213350701633,0.5764286243402654,0.502217874089383,0.6853318214416504,-0.7083531618118286,-0.1689855456352234,32.494873046875,-12.92431449890137,9.040504455566406,2,10.3.35.51,10.83.46.32,1,0
2015-02-27 20:22:39.296,45,1425097359.002668,37.78774709175147,-122.3968596612326,12.39598,-1,-1,10,65,-9999,1425097359.221584,32.40702056884766,-9.312408447265625,10.3834228515625,284.8666687011719,271.0933837890625,10,139386.5765237084,0.7864227294921875,-0.9715576171875,-0.18536376953125,139386.5519580833,-0.963115430312289,-0.493188139110684,0.6881669509469823,139386.5519580833,1.149539812307542,1.275188184932187,0.7990374431823912,-0.9690763354301453,-0.4828850030899048,0.7257647514343262,0.2246525436639786,-0.1475726664066315,0.05781159177422523,XTrueNorthZVertical,-0.03579411616657814,0.6301867762527588,0.5967691330583185,0.4954290979551,0.6671473979949951,-0.7166851162910461,-0.2031668126583099,32.29021835327148,-13.43947219848633,9.022626876831055,2,10.3.35.51,10.83.46.32,1,0
2015-02-27 20:22:39.344,46,1425097359.002668,37.78774709175147,-122.3968596612326,12.39598,-1,-1,10,65,-9999,1425097359.298234,32.8842887878418,-11.317626953125,10.98259735107422,280.3809509277344,266.607666015625,10,139386.6256798333,0.6961669921875,-0.9500885009765625,-0.18536376953125,139386.603739375,-0.8870443643030477,-0.4386974663626818,1.117224839428013,139386.603739375,1.237533316082838,1.184640525193429,0.8295248857884099,-0.8930052518844604,-0.4283944368362427,1.15482223033905,0.08697351068258286,-0.2497245669364929,0.08867637068033218,XTrueNorthZVertical,-0.02402824662538304,0.6101371830020815,0.6236824932250621,0.4880321607381392,0.6255051493644714,-0.7376106381416321,-0.2543105185031891,32.00413513183594,-14.76653671264648,7.897470474243164,2,10.3.35.51,10.83.46.32,1,0
2015-02-27 20:22:39.397,47,1425097359.002668,37.78774709175147,-122.3968596612326,12.39598,-1,-1,10,65,-9999,1425097359.34953,33.13995742797852,-13.03396606445312,9.967338562011719,276.8402404785156,263.0669555664062,10,139386.6745672917,0.65057373046875,-0.77294921875,-0.1973114013671875,139386.65552125,-0.8049068836467147,-0.4004054709450864,1.259226186647692,139386.603739375,1.237533316082838,1.184640525193429,0.8295248857884099,-0.8930052518844604,-0.4283944368362427,1.15482223033905,0.08697351068258286,-0.2497245669364929,0.08867637068033218,XTrueNorthZVertical,-0.02402824662538304,0.6101371830020815,0.6236824932250621,0.4880321607381392,0.6255051493644714,-0.7376106381416321,-0.2543105185031891,32.00413513183594,-14.76653671264648,7.897470474243164,2,10.3.35.51,10.83.46.32,1,0
2015-02-27 20:22:39.434,48,1425097359.002668,37.78774709175147,-122.3968596612326,12.39598,-1,-1,10,65,-9999,1425097359.406663,32.83314514160156,-15.75286865234375,8.802276611328125,272.4462585449219,258.6729736328125,10,139386.7237108334,0.4256591796875,-0.8297882080078125,-0.12152099609375,139386.7073027084,-0.8264736947863944,-1.288549454462228,1.264561297259448,139386.7073027084,1.440275640166873,0.9701775562147004,0.905281553150455,-0.8324344754219055,-1.278246641159058,1.302157998085022,-0.005599856842309237,-0.007956628687679768,0.2137383371591568,XTrueNorthZVertical,0.01428595808915652,0.5703639582036251,0.6779486009998478,0.4635369909445096,0.5093992948532104,-0.7865990400314331,-0.348961740732193,30.15953826904297,-19.24325561523438,4.978425025939941,2,10.3.35.51,10.83.46.32,1,0
2015-02-27 20:22:39.500,49,1425097359.002668,37.78774709175147,-122.3968596612326,12.39598,-1,-1,10,65,-9999,1425097359.478596,31.65703582763672,-20.12005615234375,5.922904968261719,267.4379577636719,253.6646575927734,10,139386.7726219583,0.262542724609375,-0.82501220703125,-0.2952728271484375,139386.7590842917,-0.789185977415868,-0.9374332363401099,1.497825979242835,139386.7590842917,1.569230234225797,0.8087990713708929,0.9337757744952248,-0.7951467037200928,-0.9271305203437805,1.535422325134277,-0.115129791200161,-0.0553661622107029,0.1967808604240417,XTrueNorthZVertical,0.04458083105533205,0.5410140049950456,0.7053699677793216,0.4558174913761074,0.4303153455257416,-0.8038715124130249,-0.4106327891349792,29.16267776489258,-21.14127349853516,2.696317672729492,2,10.3.35.51,10.83.46.32,1,0
2015-02-27 20:22:39.533,50,1425097359.002668,37.78774709175147,-122.3968596612326,12.39598,-1,-1,10,65,-9999,1425097359.478596,31.65703582763672,-20.12005615234375,5.922904968261719,267.4379577636719,253.6646575927734,10,139386.8216980417,0.2966766357421875,-0.9358367919921875,-0.201995849609375,139386.8108661667,-0.6910506217753202,-0.1157681452179625,1.517272647838702,139386.7590842917,1.569230234225797,0.8087990713708929,0.9337757744952248,-0.7951467037200928,-0.9271305203437805,1.535422325134277,-0.115129791200161,-0.0553661622107029,0.1967808604240417,XTrueNorthZVertical,0.04458083105533205,0.5410140049950456,0.7053699677793216,0.4558174913761074,0.4303153455257416,-0.8038715124130249,-0.4106327891349792,29.16267776489258,-21.14127349853516,2.696317672729492,2,10.3.35.51,10.83.46.32,1,0
2015-02-27 20:22:39.597,51,1425097359.002668,37.78774709175147,-122.3968596612326,12.39598,-1,-1,10,65,-9999,1425097359.532669,30.66842269897461,-22.80497741699219,3.859092712402344,263.4150085449219,249.6417236328125,10,139386.87067825,0.3188323974609375,-1.123611450195312,-0.426910400390625,139386.8626474583,-0.7635005876503808,0.07194343263572757,1.408691575454536,139386.8108661667,1.705384999187688,0.6734206053772184,0.9607159018708176,-0.6970112323760986,-0.1054655238986015,1.554868578910828,-0.07814281433820724,-0.03797252103686333,0.2184420675039291,XTrueNorthZVertical,0.06632659432884172,0.5212214525307626,0.7307801711003491,0.4357628974807013,0.3573176264762878,-0.8196019530296326,-0.4478579461574554,26.67398452758789,-24.3529052734375,-0.3461856842041016,2,10.3.35.51,10.83.46.32,1,0
2015-02-27 20:22:39.630,52,1425097359.002668,37.78774709175147,-122.3968596612326,12.39598,-1,-1,10,65,-9999,1425097359.609711,28.94687271118164,-25.7108154296875,1.712051391601562,258.7455749511719,244.9722900390625,10,139386.9197629583,0.2582244873046875,-1.08685302734375,-0.5247802734375,139386.9144289167,-0.5545375169300764,-0.1764394822238207,1.212756955103009,139386.9144289167,1.985537557107546,0.4424452735627737,0.9771513842327531,-0.560498058795929,-0.1661370694637299,1.250352144241333,0.05575612559914589,-0.2726705074310303,-0.02423332817852497,XTrueNorthZVertical,0.08792632480670214,0.4893958582717174,0.7777995424815427,0.3844327093468377,0.2395014464855194,-0.8289072513580322,-0.505521297454834,23.77105712890625,-27.14021682739258,-1.740942001342773,2,10.3.35.51,10.83.46.32,1,0
2015-02-27 20:22:39.699,53,1425097359.002668,37.78774709175147,-122.3968596612326,12.39598,-1,-1,10,65,-9999,1425097359.660068,27.7707633972168,-27.08724975585938,0.829925537109375,255.1236114501953,241.3503112792969,10,139386.9687260417,0.2048187255859375,-0.984375,-0.5238800048828125,139386.9144289167,-0.5545375169300764,-0.1764394822238207,1.212756955103009,139386.9144289167,1.985537557107546,0.4424452735627737,0.9771513842327531,-0.560498058795929,-0.1661370694637299,1.250352144241333,0.05575612559914589,-0.2726705074310303,-0.02423332817852497,XTrueNorthZVertical,0.08792632480670214,0.4893958582717174,0.7777995424815427,0.3844327093468377,0.2395014464855194,-0.8289072513580322,-0.505521297454834,23.77105712890625,-27.14021682739258,-1.740942001342773,2,10.3.35.51,10.83.46.32,1,0
2015-02-27 20:22:39.727,54,1425097359.002668,37.78774709175147,-122.3968596612326,12.39598,-1,-1,10,65,-9999,1425097359.711637,26.16852188110352,-28.78656005859375,-0.1686935424804688,250.8657989501953,237.0924987792969,10,139387.0177532917,0.2317962646484375,-1.106582641601562,-0.51885986328125,139387.017992375,-1.713245351393818,1.040191040684708,0.4489738060609705,139386.9662108333,2.097830635227266,0.3551800999834272,0.9576943510024875,-1.163779020309448,0.4355931580066681,0.8374773859977722,0.006439799442887306,-0.1598551124334335,0.01002780161798,XTrueNorthZVertical,0.09016236198285799,0.4713008454788277,0.7978581872012155,0.3649226707624179,0.2001031637191772,-0.8178670406341553,-0.5394925475120544,21.29020309448242,-28.99602127075195,-3.262424468994141,2,10.3.35.51,10.83.46.32,1,0
2015-02-27 20:22:39.795,55,1425097359.002668,37.78774709175147,-122.3968596612326,12.39598,-1,-1,10,65,-9999,1425097359.764719,24.92422866821289,-29.75514221191406,-1.350395202636719,247.2490844726562,233.4757843017578,10,139387.0667597917,0.420867919921875,-1.124114990234375,-0.5844573974609375,139387.0697736667,-1.663876736370365,0.9988547858250434,0.4303575110929896,139387.017992375,2.188534614393792,0.3222364821322844,0.8958252645280391,-1.719205737113953,1.050493240356445,0.4865682423114777,0.03390549123287201,-0.3258576095104218,0.07385224848985672,XTrueNorthZVertical,0.06759447654843197,0.446178137794022,0.822430837205939,0.3463575538303045,0.1978907734155655,-0.7807250618934631,-0.5927121043205261,20.67550277709961,-29.33993911743164,-4.046823501586914,2,10.3.35.51,10.83.46.32,1,0
2015-02-27 20:22:39.829,56,1425097359.002668,37.78774709175147,-122.3968596612326,12.39598,-1,-1,10,65,-9999,1425097359.816036,24.17424774169922,-30.40089416503906,-2.215866088867188,242.7664642333984,228.9931640625,10,139387.115803125,0.523468017578125,-1.0450439453125,-0.6085968017578125,139387.0697736667,-1.663876736370365,0.9988547858250434,0.4303575110929896,139387.0697736667,2.26416688775918,0.320288262644942,0.8218548398175965,-1.669837117195129,1.009156823158264,0.4679515659809113,0.206504613161087,-0.3917050063610077,0.06178093329071999,XTrueNorthZVertical,0.03516752061748186,0.4190991292985797,0.846371402104358,0.3267638229707601,0.214363306760788,-0.7324099540710449,-0.6462383270263672,20.19751358032227,-29.46314239501953,-5.35435962677002,2,10.3.35.51,10.83.46.32,1,0
2015-02-27 20:22:39.865,57,1425097359.002668,37.78774709175147,-122.3968596612326,12.39598,-1,-1,10,65,-9999,1425097359.816036,24.17424774169922,-30.40089416503906,-2.215866088867188,242.7664642333984,228.9931640625,10,139387.1648006667,0.5132598876953125,-0.917205810546875,-0.7515411376953125,139387.1215557917,-1.537731051332691,0.846623970542261,0.331224268991989,139387.1215557917,2.328587206957038,0.3184096601454169,0.7534172639836194,-1.543691277503967,0.8569259643554688,0.3688179850578308,0.2951385676860809,-0.3609088063240051,0.08409703522920609,XTrueNorthZVertical,0.008209193250504268,0.3919001033282445,0.8663615201710677,0.3094585844860933,0.2283294498920441,-0.6841351389884949,-0.692693829536438,19.65504264831543,-29.35807991027832,-7.514509201049805,2,10.3.35.51,10.83.46.32,1,0
2015-02-27 20:22:39.926,58,1425097359.002668,37.78774709175147,-122.3968596612326,12.39598,-1,-1,10,65,-9999,1425097359.870257,23.79925918579102,-30.63880920410156,-3.181198120117188,240.237548828125,226.4642486572266,10,139387.2138985417,0.577606201171875,-0.685516357421875,-0.7433929443359375,139387.225118625,-1.643862281830093,0.4252487691738906,-0.7245864778021429,139387.1733370417,2.365914011549996,0.3351035307458578,0.6806412432556461,-1.588222503662109,0.6527961492538452,-0.1959645599126816,0.2576745748519897,-0.2879143059253693,-0.01760085485875607,XTrueNorthZVertical,-0.02106081227268331,0.3641240183000284,0.8814674740675235,0.2999753567082602,0.2555853128433228,-0.6292915344238281,-0.7339403033256531,19.61067390441895,-29.16179084777832,-8.348461151123047,2,10.3.35.51,10.83.46.32,1,0
2015-02-27 20:22:39.964,59,1425097359.002668,37.78774709175147,-122.3968596612326,12.39598,-1,-1,10,65,-9999,1425097359.924122,23.96970748901367,-30.43490600585938,-4.745704650878906,238.9680023193359,225.1947021484375,10,139387.2628540834,0.5959930419921875,-0.563629150390625,-0.7751312255859375,139387.225118625,-1.643862281830093,0.4252487691738906,-0.7245864778021429,139387.225118625,2.371356880458263,0.3586930171065417,0.5949172488360038,-1.649822354316711,0.4355505704879761,-0.6869935393333435,0.3301264643669128,-0.05679305270314217,0.01436194684356451,XTrueNorthZVertical,-0.04972124724642894,0.3313381891526636,0.8914845934484132,0.304955738777258,0.2907384037971497,-0.5604402422904968,-0.7754855751991272,20.08811569213867,-28.38689422607422,-9.764080047607422,2,10.3.35.51,10.83.46.32,1,0
2015-02-27 20:22:40.025,60,1425097359.002668,37.78774709175147,-122.3968596612326,12.39598,-1,-1,10,65,-9999,1425097359.997864,24.8901481628418,-28.36172485351562,-7.808151245117188,239.1971893310547,225.4238891601562,10,139387.3118867083,0.6386260986328125,-0.452850341796875,-0.693115234375,139387.2769004167,-1.431133501328416,-0.05216573311636311,-1.078655608940941,139387.2769004167,2.355617273218375,0.3745793015245569,0.5054333869859716,-1.437093615531921,-0.04186404868960381,-1.041063070297241,0.2544672191143036,-0.06502290815114975,0.05617840960621834,XTrueNorthZVertical,-0.07246273956407781,0.2959748447727192,0.8966143370288904,0.3212954314313388,0.3201330006122589,-0.4841866791248322,-0.8142960667610168,21.8477897644043,-25.88394355773926,-12.54515552520752,2,10.3.35.51,10.83.46.32,1,0
2015-02-27 20:22:40.065,61,1425097359.002668,37.78774709175147,-122.3968596612326,12.39598,-1,-1,10,65,-9999,1425097360.049836,26.04921340942383,-26.25454711914062,-9.339378356933594,240.9819488525391,227.2086486816406,10,139387.3609015417,0.6832427978515625,-0.3544158935546875,-0.680328369140625,139387.3286818333,-1.004727056028668,-0.09932206022228718,-1.16507838210732,139387.3286818333,2.324000256664342,0.3859412935406439,0.4289179409368497,-1.010686993598938,-0.08902046829462051,-1.127486228942871,0.3224468529224396,0.01207841001451015,0.1521398276090622,XTrueNorthZVertical,-0.08891538259764178,0.2661431727911855,0.8961613202431689,0.343739342237617,0.3423328101634979,-0.4158869981765747,-0.8425237536430359,25.8403434753418,-27.8167724609375,-8.937081336975098,2,10.3.35.51,10.83.46.32,1,0
2015-02-27 20:22:40.124,62,1425097359.002668,37.78774709175147,-122.3968596612326,12.39598,-1,-1,10,65,-9999,1425097360.100684,26.69692993164062,-23.70559692382812,-10.60430145263672,243.8089599609375,230.0356597900391,10,139387.4099392083,0.6861724853515625,-0.188232421875,-0.8307342529296875,139387.3804632917,-0.6751105373867599,-1.010537540895003,-1.507182995732828,139387.3804632917,2.275440523563594,0.376826303905525,0.365823201805297,-0.6810705065727234,-1.000236034393311,-1.46959114074707,0.3286034464836121,-0.01455053128302097,0.1812366992235184,XTrueNorthZVertical,-0.09218925100579302,0.2394711189950752,0.8910393778631808,0.3744376226438876,0.3436225056648254,-0.3577181398868561,-0.8683094382286072,27.16043663024902,-26.00446701049805,-10.36562156677246,2,10.3.35.51,10.83.46.32,1,0
2015-02-27 20:22:40.201,63,1425097359.002668,37.78774709175147,-122.3968596612326,12.39598,-1,-1,10,65,-9999,1425097360.155076,27.22532653808594,-21.24159240722656,-12.41847229003906,247.9213104248047,234.1480102539062,10,139387.4589505833,0.5370025634765625,-0.057952880859375,-0.8577880859375,139387.4322453333,-0.1440889991981922,-1.490556082099136,-1.557178785192994,139387.4322453333,2.206435183114538,0.3371616727393552,0.3207873202479371,-0.1499980092048645,-1.480302214622498,-1.519525408744812,0.3540343046188354,0.2930054664611816,0.04086645692586899,XTrueNorthZVertical,-0.076887944989653,0.2151969797347763,0.8807901182146187,0.4147134582715511,0.3139344453811646,-0.3153138160705566,-0.8955569863319397,28.91640853881836,-22.40851020812988,-13.53025054931641,2,10.3.35.51,10.83.46.32,1,0
2015-02-27 20:22:40.219,64,1425097359.002668,37.78774709175147,-122.3968596612326,12.39598,-1,-1,10,65,-9999,1425097360.205792,27.00374221801758,-18.91354370117188,-14.79852294921875,253.2830657958984,239.509765625,10,139387.50796975,0.314208984375,-0.2469635009765625,-0.64404296875,139387.4840266667,0.3551213460854881,-2.583430041783901,-1.531708312527477,139387.4840266667,2.128767686824209,0.2564810471141874,0.3034101791810932,0.3492123782634735,-2.573176145553589,-1.494055390357971,0.2081958055496216,0.1331116706132889,0.08436083793640137,XTrueNorthZVertical,-0.0378538110936404,0.1923905165615034,0.8667226036464533,0.4586337181662191,0.2420910596847534,-0.2987763583660126,-0.9231059551239014,29.20304298400879,-21.04869842529297,-15.01673221588135,2,10.3.35.51,10.83.46.32,1,0
2015-02-27 20:22:40.265,65,1425097359.002668,37.78774709175147,-122.3968596612326,12.39598,-1,-1,10,65,-9999,1425097360.257464,26.13443756103516,-16.82342529296875,-17.14527893066406,258.4071350097656,244.6338500976562,10,139387.5569819583,-0.2713623046875,-0.0909881591796875,-0.7229461669921875,139387.5358082083,0.429599042814535,-3.112390026972638,-1.533166925856513,139387.5358082083,2.053467865345337,0.1355001220510031,0.3131960993648124,0.423690140247345,-3.102136373519897,-1.495514273643494,-0.103917270898819,0.1289016008377075,0.3754338026046753,XTrueNorthZVertical,0.02332686057298167,0.1677471517614591,0.8486694969190099,0.5010756595951695,0.128514438867569,-0.3081008195877075,-0.9426335096359253,28.73679351806641,-19.32195854187012,-17.95066452026367,2,10.3.35.51,10.83.46.32,1,0
2015-02-27 20:22:40.316,66,1425097359.002668,37.78774709175147,-122.3968596612326,12.39598,-1,-1,10,65,-9999,1425097360.308971,24.17424774169922,-14.46136474609375,-20.19108581542969,264.3202209472656,250.5469360351562,10,139387.6061362083,-0.4540252685546875,-0.1046600341796875,-0.7358551025390625,139387.5875900417,0.2559777176562362,-2.256170687022822,-1.715934345146471,139387.5875900417,1.961863568358625,0.02431230612968513,0.3244075046971443,0.250068873167038,-2.245917081832886,-1.678282141685486,-0.3721172213554382,0.1836917102336884,0.2434123009443283,XTrueNorthZVertical,0.07985471786138527,0.1408666297613939,0.8211393116174081,0.5472750940424811,0.02304190024733543,-0.3187472522258759,-0.947559654712677,26.27800750732422,-16.792724609375,-23.42729759216309,2,10.3.35.51,10.83.46.32,1,0
2015-02-27 20:22:40.365,67,1425097359.002668,37.78774709175147,-122.3968596612326,12.39598,-1,-1,10,65,-9999,1425097360.360212,22.79359817504883,-12.57513427734375,-22.23825836181641,270.8038635253906,257.0305786132812,10,139387.6550529167,-0.4610595703125,-0.0149383544921875,-0.7643585205078125,139387.6393714584,0.1541248554500468,-0.6595576766206971,-1.62517408151268,139387.5875900417,1.961863568358625,0.02431230612968513,0.3244075046971443,0.250068873167038,-2.245917081832886,-1.678282141685486,-0.3721172213554382,0.1836917102336884,0.2434123009443283,XTrueNorthZVertical,0.07985471786138527,0.1408666297613939,0.8211393116174081,0.5472750940424811,0.02304190024733543,-0.3187472522258759,-0.947559654712677,26.27800750732422,-16.792724609375,-23.42729759216309,2,10.3.35.51,10.83.46.32,1,0
2015-02-27 20:22:40.414,68,1425097359.002668,37.78774709175147,-122.3968596612326,12.39598,-1,-1,10,65,-9999,1425097360.360212,22.79359817504883,-12.57513427734375,-22.23825836181641,270.8038635253906,257.0305786132812,10,139387.7040772083,-0.3222808837890625,-0.0453033447265625,-0.6844024658203125,139387.6911529583,0.2335709455087455,0.6215224099321854,-1.448488256888026,139387.6911529583,1.797415503850179,0.01447994564532297,0.34190654498636,0.2276622205972672,0.6317758560180664,-1.410836815834045,-0.4052123725414276,0.2667871713638306,0.2305315583944321,XTrueNorthZVertical,0.100335938637703,0.1375627497233195,0.7718628278256454,0.6125658701846038,0.01364132855087519,-0.3352838754653931,-0.9420183897018433,25.7737922668457,-14.01863288879395,-25.7013053894043,2,10.3.35.51,10.83.46.32,1,0
2015-02-27 20:22:40.498,69,1425097359.002668,37.78774709175147,-122.3968596612326,12.39598,-1,-1,10,65,-9999,1425097360.463817,24.15720367431641,-9.448394775390625,-22.13839721679688,279.5953369140625,265.8220520019531,10,139387.7530935417,-0.024200439453125,-0.107879638671875,-0.6716156005859375,139387.742935,0.6367189397443955,1.380092953772611,-1.358273142329374,139387.6911529583,1.797415503850179,0.01447994564532297,0.34190654498636,0.2276622205972672,0.6317758560180664,-1.410836815834045,-0.4052123725414276,0.2667871713638306,0.2305315583944321,XTrueNorthZVertical,0.100335938637703,0.1375627497233195,0.7718628278256454,0.6125658701846038,0.01364132855087519,-0.3352838754653931,-0.9420183897018433,25.7737922668457,-14.01863288879395,-25.7013053894043,2,10.3.35.51,10.83.46.32,1,0
2015-02-27 20:22:40.514,70,1425097359.002668,37.78774709175147,-122.3968596612326,12.39598,-1,-1,10,65,-9999,1425097360.463817,24.15720367431641,-9.448394775390625,-22.13839721679688,279.5953369140625,265.8220520019531,10,139387.8021382917,0.21966552734375,-0.1905517578125,-0.70184326171875,139387.7947163333,1.368343885991509,1.235953887145926,-1.376741631856856,139387.7947163333,1.64696434083471,0.1947123433522924,0.3998659292953601,1.362435221672058,1.246207118034363,-1.339091062545776,-0.003111098427325487,0.2245609611272812,0.2109124511480331,XTrueNorthZVertical,0.06446658915333622,0.2097389594548452,0.7286218702183513,0.648817215398157,0.1782209575176239,-0.3892948627471924,-0.9037072658538818,29.86872291564941,-11.06106662750244,-22.51399040222168,2,10.3.35.51,10.83.46.32,1,0
2015-02-27 20:22:40.565,71,1425097359.002668,37.78774709175147,-122.3968596612326,12.39598,-1,-1,10,65,-9999,1425097360.51557,25.89580154418945,-8.258880615234375,-20.37416839599609,283.9901123046875,270.2168273925781,10,139387.8511675417,0.32562255859375,-0.370452880859375,-0.717559814453125,139387.84649775,2.026822183422397,0.1966707180768256,-1.456883073276174,139387.7947163333,1.64696434083471,0.1947123433522924,0.3998659292953601,1.362435221672058,1.246207118034363,-1.339091062545776,-0.003111098427325487,0.2245609611272812,0.2109124511480331,XTrueNorthZVertical,0.06446658915333622,0.2097389594548452,0.7286218702183513,0.648817215398157,0.1782209575176239,-0.3892948627471924,-0.9037072658538818,29.86872291564941,-11.06106662750244,-22.51399040222168,2,10.3.35.51,10.83.46.32,1,0
2015-02-27 20:22:40.613,72,1425097359.002668,37.78774709175147,-122.3968596612326,12.39598,-1,-1,10,65,-9999,1425097360.567262,27.65144348144531,-7.902008056640625,-18.75971221923828,287.1187133789062,273.3454284667969,10,139387.9002202083,0.1472015380859375,-0.4942779541015625,-0.7108001708984375,139387.8982797083,2.189321348920198,-0.4600680025300226,-1.394113431647443,139387.84649775,1.54977092188422,0.2719134476202805,0.4687558561804214,2.020913600921631,0.2069237977266312,-1.419232845306396,0.0741623193025589,0.1180059462785721,0.132653221487999,XTrueNorthZVertical,0.07216853229352642,0.2551767623155003,0.6967163596732835,0.666530432967736,0.2396041601896286,-0.4517766833305359,-0.8593530654907227,31.73579406738281,-10.44348239898682,-20.12810897827148,2,10.3.35.51,10.83.46.32,1,0
2015-02-27 20:22:40.662,73,1425097359.002668,37.78774709175147,-122.3968596612326,12.39598,-1,-1,10,65,-9999,1425097360.62102,28.35028839111328,-7.74908447265625,-17.81101226806641,290.9195861816406,277.1463012695312,10,139387.94923675,0.211578369140625,-0.63702392578125,-0.669891357421875,139387.8982797083,2.189321348920198,-0.4600680025300226,-1.394113431647443,139387.8982797083,1.439490458126171,0.3117642350825169,0.5509670909765604,2.183412790298462,-0.4498150050640106,-1.356463551521301,-0.05999176576733589,0.06130747497081757,0.09648384898900986,XTrueNorthZVertical,0.1035840610180667,0.2894775923173477,0.6584021719811917,0.6870077341394195,0.2613467574119568,-0.5235114693641663,-0.8109461069107056,33.00586700439453,-9.889906883239746,-18.28032302856445,2,10.3.35.51,10.83.46.32,1,0
2015-02-27 20:22:40.710,74,1425097359.002668,37.78774709175147,-122.3968596612326,12.39598,-1,-1,10,65,-9999,1425097360.671666,28.89572906494141,-7.477203369140625,-17.11197662353516,297.0294494628906,283.2561645507812,10,139387.99827425,0.36572265625,-0.7505035400390625,-0.6328277587890625,139388.0018425834,2.31438845371639,0.592638031065295,-1.206851395385758,139387.950061125,1.313295214888598,0.3856059400565798,0.6349443299693258,2.361381053924561,0.5659464597702026,-1.394658207893372,-0.09123814105987549,-0.04389123246073723,0.07609507441520691,XTrueNorthZVertical,0.1315414544986411,0.3312153819573196,0.6165881214813637,0.702005901641222,0.3028165102005005,-0.5931326746940613,-0.7459864616394043,33.22638702392578,-9.740044593811035,-17.95846366882324,2,10.3.35.51,10.83.46.32,1,0
2015-02-27 20:22:40.748,75,1425097359.002668,37.78774709175147,-122.3968596612326,12.39598,-1,-1,10,65,-9999,1425097360.724039,29.47526550292969,-7.171356201171875,-15.71392059326172,301.2944946289062,287.5212097167969,10,139388.047399625,0.5027313232421875,-0.9025115966796875,-0.5688018798828125,139388.0018425834,2.31438845371639,0.592638031065295,-1.206851395385758,139388.0018425834,1.173503554656941,0.5051494445546747,0.7154335963730196,2.308480262756348,0.6028907895088196,-1.169202208518982,0.0004417826130520552,-0.09455878287553787,0.02770713157951832,XTrueNorthZVertical,0.1527229447488585,0.3826333192478983,0.5750209514544321,0.7068368492974779,0.3652808666229248,-0.6559447646141052,-0.6605349183082581,34.48096466064453,-9.356111526489258,-15.64908695220947,2,10.3.35.51,10.83.46.32,1,0
2015-02-27 20:22:40.811,76,1425097359.002668,37.78774709175147,-122.3968596612326,12.39598,-1,-1,10,65,-9999,1425097360.774088,30.49796676635742,-7.40924072265625,-14.41570281982422,306.3100891113281,292.5368041992188,10,139388.096335875,0.5196380615234375,-0.8874053955078125,-0.5287017822265625,139388.0536245,2.09301132389079,0.9005902668716267,-0.6258644277734506,139388.0536245,1.043770920468877,0.6323193792415226,0.7833625933141083,2.087103128433228,0.9108429551124573,-0.5882156491279602,0.08396916836500168,-0.1968456506729126,0.002751973690465093,XTrueNorthZVertical,0.1712640870662443,0.4299903321356056,0.540816205423617,0.7023494427208228,0.4187621474266052,-0.7056659460067749,-0.5715538263320923,35.65019607543945,-9.122451782226562,-12.93104934692383,2,10.3.35.51,10.83.46.32,1,0
2015-02-27 20:22:40.845,77,1425097359.002668,37.78774709175147,-122.3968596612326,12.39598,-1,-1,10,65,-9999,1425097360.825976,31.70817184448242,-7.562164306640625,-12.96769714355469,309.8246765136719,296.0513916015625,10,139388.14535925,0.5535888671875,-0.74603271484375,-0.4168853759765625,139388.105406,1.928416250615097,0.5431895212091398,-0.2275660498828349,139388.105406,0.9292118812704206,0.7496337336625685,0.8486501350886352,1.922508001327515,0.553442120552063,-0.1899176388978958,0.06925429403781891,-0.1370165646076202,-0.04489289224147797,XTrueNorthZVertical,0.1930192394385996,0.4699352389580904,0.5147345958320632,0.6906176375052425,0.4503837823867798,-0.7503888607025146,-0.4838088750839233,36.10245132446289,-9.308771133422852,-11.45982456207275,2,10.3.35.51,10.83.46.32,1,0
2015-02-27 20:22:40.911,78,1425097359.002668,37.78774709175147,-122.3968596612326,12.39598,-1,-1,10,65,-9999,1425097360.877973,32.59451675415039,-7.936004638671875,-11.46975708007812,310.4753112792969,296.7020263671875,10,139388.1944100417,0.8192138671875,-0.564971923828125,-0.4700469970703125,139388.157187625,1.550928878746797,0.4752147312298483,0.3790929916895093,139388.157187625,0.8387135942560323,0.851871670440057,0.9157974670377931,1.545020699501038,0.4854671955108643,0.4167409837245941,0.2110179513692856,-0.220562219619751,-0.1319498717784882,XTrueNorthZVertical,0.2167827186128417,0.5024109634826892,0.4994180551353382,0.6716919412020891,0.4584003686904907,-0.793048620223999,-0.4011769592761993,36.48106384277344,-9.875165939331055,-9.642650604248047,2,10.3.35.51,10.83.46.32,1,0
2015-02-27 20:22:40.944,79,1425097359.002668,37.78774709175147,-122.3968596612326,12.39598,-1,-1,10,65,-9999,1425097360.930646,32.93541717529297,-9.159515380859375,-10.30469512939453,310.2640991210938,296.4908142089844,10,139388.24347625,0.4378814697265625,-1.157058715820312,-0.4276275634765625,139388.2089693334,1.766846528337734,-1.019397345209479,-0.9596743598677976,139388.2089693334,0.7326914774692003,0.9191380798544669,0.9525350546784983,1.760938405990601,-1.009145021438599,-0.9220267534255981,0.3496885001659393,0.2898173034191132,-0.08530157059431076,XTrueNorthZVertical,0.242426140627362,0.5152265661041291,0.4751755881790724,0.670804959215058,0.4608431160449982,-0.8148874640464783,-0.3515422940254211,36.55256652832031,-11.0798454284668,-7.906612396240234,2,10.3.35.51,10.83.46.32,1,0
2015-02-27 20:22:41.012,80,1425097359.002668,37.78774709175147,-122.3968596612326,12.39598,-1,-1,10,65,-9999,1425097360.98151,32.8331413269043,-9.97515869140625,-11.07030487060547,314.8287658691406,301.0554809570312,10,139388.2925959167,0.2924652099609375,-0.879180908203125,-0.462066650390625,139388.2607508333,0.6727938535544999,-1.085524966656691,0.7833627093763007,139388.2607508333,0.6418561291186959,0.9288977800097064,0.9959493050175212,0.6668857932090759,-1.075272679328918,0.8210099935531616,0.00732271745800972,-0.7642096281051636,-0.2628830671310425,XTrueNorthZVertical,0.2811075213413345,0.5081489793837703,0.4508081470597385,0.6778902357527379,0.4354873299598694,-0.8392754793167114,-0.3255263566970825,36.50907897949219,-10.69116306304932,-8.611268043518066,2,10.3.35.51,10.83.46.32,1,0
2015-02-27 20:22:41.042,81,1425097359.002668,37.78774709175147,-122.3968596612326,12.39598,-1,-1,10,65,-9999,1425097361.033757,32.15133666992188,-10.14508056640625,-12.20207977294922,315.9467163085938,302.1734313964844,10,139388.3415142084,0.464630126953125,-0.8003692626953125,-0.3821563720703125,139388.31253225,-0.4062601642855166,-0.07812835795132758,-0.3630386576901847,139388.31253225,0.648503223140475,0.8818303601424322,0.9694094139850704,-0.4121681749820709,-0.06787619739770889,-0.3253917992115021,-0.4226641952991486,-0.004885544534772635,0.272687166929245,XTrueNorthZVertical,0.2791199552079597,0.4921845749628908,0.4434290079711763,0.6951381809761115,0.4367327988147736,-0.8245517015457153,-0.35969278216362,35.73099136352539,-11.73931789398193,-10.33693981170654,2,10.3.35.51,10.83.46.32,1,0
2015-02-27 20:22:41.100,82,1425097359.002668,37.78774709175147,-122.3968596612326,12.39598,-1,-1,10,65,-9999,1425097361.085479,31.48657989501953,-9.584320068359375,-12.68475341796875,317.5191040039062,303.7458190917969,10,139388.390566,0.353759765625,-0.864227294921875,-0.39013671875,139388.36431425,0.2840855187492595,-0.4869707232297851,-0.2463139050086657,139388.36431425,0.63415757691979,0.8914897182648581,0.9672832728704122,0.2781775593757629,-0.4767186641693115,-0.2086674124002457,0.04778438061475754,-0.08130092173814774,-0.04137584939599037,XTrueNorthZVertical,0.279649180834615,0.4934747000832821,0.4395452863600871,0.696476114639006,0.4415497183799744,-0.8233469128608704,-0.3565581142902374,35.79962921142578,-10.60508918762207,-11.28211975097656,2,10.3.35.51,10.83.46.32,1,0
2015-02-27 20:22:41.139,83,1425097359.002668,37.78774709175147,-122.3968596612326,12.39598,-1,-1,10,65,-9999,1425097361.085479,31.48657989501953,-9.584320068359375,-12.68475341796875,317.5191040039062,303.7458190917969,10,139388.439586375,0.5003509521484375,-0.82366943359375,-0.2216949462890625,139388.416095875,-0.1870492496905874,0.0347017879520595,-0.2586376829530074,139388.416095875,0.6188304705605804,0.8820598227859462,0.9575972614031544,-0.1929571479558945,0.04495375603437424,-0.2209915071725845,-0.1020648628473282,-0.05634957924485207,0.0667463093996048,XTrueNorthZVertical,0.2814775340449551,0.4877413528017588,0.4317255457522742,0.7046217458521672,0.4443042576313019,-0.8178111910820007,-0.365757554769516,35.68993377685547,-10.41752052307129,-11.79286003112793,2,10.3.35.51,10.83.46.32,1,0
2015-02-27 20:22:41.199,84,1425097359.002668,37.78774709175147,-122.3968596612326,12.39598,-1,-1,10,65,-9999,1425097361.188763,31.89566421508789,-7.715057373046875,-13.28392028808594,319.5838317871094,305.810546875,10,139388.4886670417,0.690399169921875,-0.773284912109375,-0.3159637451171875,139388.4678770833,-0.04973426704112077,0.6713520181403311,-0.2859651778466374,139388.4678770833,0.6128450331919377,0.9234449578589706,0.9441613603836954,-0.05559400841593742,0.6815590858459473,-0.2482602149248123,0.2168974280357361,0.0200273934751749,0.1214946359395981,XTrueNorthZVertical,0.2684746132257896,0.5010916351106285,0.4336706936867115,0.6991124842973981,0.4677796959877014,-0.8100054264068604,-0.3536570966243744,35.75527191162109,-9.962440490722656,-11.98657608032227,2,10.3.35.51,10.83.46.32,1,0
2015-02-27 20:22:41.238,85,1425097359.002668,37.78774709175147,-122.3968596612326,12.39598,-1,-1,10,65,-9999,1425097361.188763,31.89566421508789,-7.715057373046875,-13.28392028808594,319.5838317871094,305.810546875,10,139388.537759875,0.42279052734375,-0.8113250732421875,-0.3346099853515625,139388.5196592083,0.1025833672931982,-0.5270899134712838,-0.2156183102844124,139388.4678770833,0.6128450331919377,0.9234449578589706,0.9441613603836954,-0.05559400841593742,0.6815590858459473,-0.2482602149248123,0.2168974280357361,0.0200273934751749,0.1214946359395981,XTrueNorthZVertical,0.2684746132257896,0.5010916351106285,0.4336706936867115,0.6991124842973981,0.4677796959877014,-0.8100054264068604,-0.3536570966243744,35.75527191162109,-9.962440490722656,-11.98657608032227,2,10.3.35.51,10.83.46.32,1,0
2015-02-27 20:22:41.296,86,1425097359.002668,37.78774709175147,-122.3968596612326,12.39598,-1,-1,10,65,-9999,1425097361.292909,31.98088455200195,-7.05230712890625,-13.06755065917969,321.3696594238281,307.5963745117188,10,139388.5866984167,0.542327880859375,-0.7683868408203125,-0.2884521484375,139388.5714405833,0.1322893313563781,0.2318979477119578,-0.2580733591180196,139388.5714405833,0.5818432081930069,0.9341932213551278,0.9332703379523186,0.1264297217130661,0.242104783654213,-0.2203691899776459,-0.03744209930300713,0.06278707832098007,0.07854863256216049,XTrueNorthZVertical,0.2694610662444202,0.5004742856668474,0.422796214163133,0.7058041976651701,0.4786194562911987,-0.8035707473754883,-0.3538324534893036,36.12859344482422,-9.183258056640625,-11.47867774963379,2,10.3.35.51,10.83.46.32,1,0
2015-02-27 20:22:41.336,87,1425097359.002668,37.78774709175147,-122.3968596612326,12.39598,-1,-1,10,65,-9999,1425097361.292909,31.98088455200195,-7.05230712890625,-13.06755065917969,321.3696594238281,307.5963745117188,10,139388.6357242917,0.5937957763671875,-0.75054931640625,-0.2983245849609375,139388.6232219583,0.04789801746951113,-0.02549816954085466,-0.2575396616355677,139388.6232219583,0.5666288804949142,0.9534737202853395,0.9264158362118852,0.0420384556055069,-0.01529143005609512,-0.2198358327150345,0.1123559400439262,0.04017945751547813,0.06108313426375389,XTrueNorthZVertical,0.266413319738587,0.5051378034082551,0.4190616455817422,0.7058661777021505,0.4898321628570557,-0.7994720339775085,-0.3477194905281067,36.28913497924805,-8.872941970825195,-11.21326732635498,2,10.3.35.51,10.83.46.32,1,0
2015-02-27 20:22:41.395,88,1425097359.002668,37.78774709175147,-122.3968596612326,12.39598,-1,-1,10,65,-9999,1425097361.344761,31.98088455200195,-6.780426025390625,-13.13412475585938,322.8576049804688,309.0843200683594,10,139388.684768625,0.57373046875,-0.849212646484375,-0.31744384765625,139388.6750039583,0.002065547741465457,-0.3578183293214113,-0.2135948404881702,139388.6232219583,0.5666288804949142,0.9534737202853395,0.9264158362118852,0.0420384556055069,-0.01529143005609512,-0.2198358327150345,0.1123559400439262,0.04017945751547813,0.06108313426375389,XTrueNorthZVertical,0.266413319738587,0.5051378034082551,0.4190616455817422,0.7058661777021505,0.4898321628570557,-0.7994720339775085,-0.3477194905281067,36.28913497924805,-8.872941970825195,-11.21326732635498,2,10.3.35.51,10.83.46.32,1,0
2015-02-27 20:22:41.434,89,1425097359.002668,37.78774709175147,-122.3968596612326,12.39598,-1,-1,10,65,-9999,1425097361.398822,31.75930023193359,-6.355621337890625,-13.51692962646484,325.0577087402344,311.284423828125,10,139388.7337964583,0.5275421142578125,-0.75445556640625,-0.3410491943359375,139388.7267854167,-0.08875969702292391,-0.3479566438048479,-0.0179675489264376,139388.6750039583,0.5574928659005608,0.9493152623559387,0.9180796708320069,-0.003793950658291578,-0.3476116955280304,-0.1758914291858673,0.08722560107707977,-0.03654161468148232,0.0231619831174612,XTrueNorthZVertical,0.2661568847978208,0.5023442280157342,0.4140870026093328,0.7108746194032999,0.4937833249568939,-0.7944367527961731,-0.3536215722560883,32.25798797607422,-6.86070728302002,-13.79433345794678,2,10.3.35.51,10.83.46.32,1,0
2015-02-27 20:22:41.497,90,1425097359.002668,37.78774709175147,-122.3968596612326,12.39598,-1,-1,10,65,-9999,1425097361.47298,31.09453582763672,-6.1007080078125,-14.49890899658203,327.4866638183594,313.71337890625,10,139388.7828352917,0.47662353515625,-0.645751953125,-0.393463134765625,139388.778566875,-0.2315115230377873,-0.3122942536475968,-0.1287004554713873,139388.778566875,0.5662090642741464,0.9105636586668691,0.9097427798773779,-0.2373709082603455,-0.302087813615799,-0.09099775552749634,0.001217842567712069,0.1457758992910385,-0.01196884363889694,XTrueNorthZVertical,0.2685463825351226,0.4895051054603414,0.4108706311697243,0.7207308079897272,0.4849271774291992,-0.7893458604812622,-0.376535177230835,31.9473876953125,-6.687146186828613,-14.58003044128418,2,10.3.35.51,10.83.46.32,1,0
2015-02-27 20:22:41.531,91,1425097359.002668,37.78774709175147,-122.3968596612326,12.39598,-1,-1,10,65,-9999,1425097361.52436,30.42977523803711,-5.981781005859375,-15.11472320556641,328.4801635742188,314.7068786621094,10,139388.8318584167,0.5328216552734375,-0.6809234619140625,-0.37176513671875,139388.778566875,-0.2315115230377873,-0.3122942536475968,-0.1287004554713873,139388.778566875,0.5662090642741464,0.9105636586668691,0.9097427798773779,-0.2373709082603455,-0.302087813615799,-0.09099775552749634,0.001217842567712069,0.1457758992910385,-0.01196884363889694,XTrueNorthZVertical,0.2685463825351226,0.4895051054603414,0.4108706311697243,0.7207308079897272,0.4849271774291992,-0.7893458604812622,-0.376535177230835,31.9473876953125,-6.687146186828613,-14.58003044128418,2,10.3.35.51,10.83.46.32,1,0
2015-02-27 20:22:41.591,92,1425097359.002668,37.78774709175147,-122.3968596612326,12.39598,-1,-1,10,65,-9999,1425097361.576209,30.20819091796875,-5.5909423828125,-15.66397094726562,329.4226684570312,315.6493835449219,10,139388.8809003333,0.715118408203125,-0.944183349609375,-0.3952178955078125,139388.8821302083,-0.7343392400301221,-0.1987836700856945,0.175138528031317,139388.8303488333,0.5791740849437825,0.8929933046231313,0.893101730137847,-0.463077187538147,0.04530599340796471,-0.1752016991376877,0.01484803855419159,0.1034221276640892,0.0211710836738348,XTrueNorthZVertical,0.2620868018657652,0.4844794400994199,0.4110209182656813,0.7263965625913555,0.4884020984172821,-0.7790202498435974,-0.3931803703308105,31.71139335632324,-6.171555519104004,-15.3045825958252,2,10.3.35.51,10.83.46.32,1,0
2015-02-27 20:22:41.629,93,1425097359.002668,37.78774709175147,-122.3968596612326,12.39598,-1,-1,10,65,-9999,1425097361.576209,30.20819091796875,-5.5909423828125,-15.66397094726562,329.4226684570312,315.6493835449219,10,139388.9299333333,0.786376953125,-0.9558868408203125,-0.6443634033203125,139388.933911875,-1.393712359587277,-1.592773531058558,0.4891814132506598,139388.8821302083,0.6174878539792311,0.8636881178340956,0.8747100727383866,-0.7401984930038452,-0.1885774433612823,0.2128404378890991,0.227635458111763,-0.1768257170915604,0.0213425736874342,XTrueNorthZVertical,0.2512637069599001,0.4781070121268873,0.4188819524063971,0.7299439193909676,0.4874829351902008,-0.7673576474189758,-0.4165604710578918,31.76661682128906,-5.825424194335938,-15.32570362091064,2,10.3.35.51,10.83.46.32,1,0
2015-02-27 20:22:41.699,94,1425097359.002668,37.78774709175147,-122.3968596612326,12.39598,-1,-1,10,65,-9999,1425097361.679771,28.41845703125,-5.0301513671875,-18.31031036376953,328.9565124511719,315.1832275390625,10,139388.97898525,0.4083404541015625,-0.82720947265625,-0.5160064697265625,139388.933911875,-1.393712359587277,-1.592773531058558,0.4891814132506598,139388.933911875,0.7003023702901454,0.7586166450236119,0.8556787131629524,-1.399571657180786,-1.582567453384399,0.5268829464912415,0.3353047966957092,-0.2008707076311111,-0.168459489941597,XTrueNorthZVertical,0.2464570623418386,0.4486724384407765,0.4342429117042315,0.7412051227749592,0.4510721564292908,-0.7550161480903625,-0.4759039282798767,31.61068344116211,-5.583273887634277,-15.7328462600708,2,10.3.35.51,10.83.46.32,1,0
2015-02-27 20:22:41.728,95,1425097359.002668,37.78774709175147,-122.3968596612326,12.39598,-1,-1,10,65,-9999,1425097361.679771,28.41845703125,-5.0301513671875,-18.31031036376953,328.9565124511719,315.1832275390625,10,139389.02801475,-0.101654052734375,-0.5141143798828125,-0.3825225830078125,139388.9856936667,-2.161756033741224,-2.428364291520729,1.425391992334314,139388.9856936667,0.8390965907398573,0.5505156760642641,0.8052792125702025,-2.167615175247192,-2.418158292770386,1.463093161582947,0.04586070775985718,-0.1061853319406509,0.07452939450740814,XTrueNorthZVertical,0.24253139526039,0.3819824471057853,0.4579298428794556,0.765224262817309,0.3624797463417053,-0.7210241556167603,-0.5905358791351318,29.23476219177246,-5.005683898925781,-19.95501518249512,2,10.3.35.51,10.83.46.32,1,0
2015-02-27 20:22:41.794,96,1425097359.002668,37.78774709175147,-122.3968596612326,12.39598,-1,-1,10,65,-9999,1425097361.783574,22.36745452880859,-5.081146240234375,-24.38526916503906,324.4429626464844,310.669677734375,10,139389.07706575,0.04559326171875,-0.521942138671875,-0.513031005859375,139389.0892565833,-0.8603656154509608,-1.245861911665457,4.545416236887774,139389.0374751667,1.06041141833008,0.2595682072989269,0.763099755984824,-1.761589407920837,-2.742110252380371,3.450918912887573,-0.2871438264846802,0.1770505607128143,0.3159647583961487,XTrueNorthZVertical,0.2577913143564531,0.2903445761865358,0.5069715399529058,0.7695605914981519,0.1854897737503052,-0.6911649703979492,-0.6984873414039612,27.37441253662109,-5.134313583374023,-22.41006851196289,2,10.3.35.51,10.83.46.32,1,0
2015-02-27 20:22:41.827,97,1425097359.002668,37.78774709175147,-122.3968596612326,12.39598,-1,-1,10,65,-9999,1425097361.783574,22.36745452880859,-5.081146240234375,-24.38526916503906,324.4429626464844,310.669677734375,10,139389.1261077083,-0.19854736328125,-0.7475738525390625,-0.5675506591796875,139389.0892565833,-0.8603656154509608,-1.245861911665457,4.545416236887774,139389.0892565833,1.354082110468793,-0.03433542796636797,0.7195191082604643,-0.8662246465682983,-1.235656023025513,4.58311653137207,0.08400114625692368,0.003291857428848743,0.1887826919555664,XTrueNorthZVertical,0.2844235758999516,0.2079988385752866,0.5815856050166781,0.7332106638946096,-0.02581938169896603,-0.6590230464935303,-0.7516794204711914,23.58303833007812,-6.86074161529541,-25.97501182556152,2,10.3.35.51,10.83.46.32,1,0
2015-02-27 20:22:41.894,98,1425097359.002668,37.78774709175147,-122.3968596612326,12.39598,-1,-1,10,65,-9999,1425097361.836419,18.94139862060547,-7.341278076171875,-26.8319091796875,312.3737487792969,298.6004638671875,10,139389.1751467084,-0.0820465087890625,-0.50799560546875,-0.5822601318359375,139389.1410387083,0.1370771623641225,-0.9410977460000589,3.876622451290573,139389.1410387083,1.630953886352376,-0.2637702880857698,0.6741791968564561,0.1312181949615479,-0.9308920502662659,3.914322376251221,-0.01726590655744076,-0.07596953213214874,0.1855356693267822,XTrueNorthZVertical,0.3151146226057807,0.1536315923991425,0.6512961967303006,0.6729883754934693,-0.2036813646554947,-0.6242563128471375,-0.7542002201080322,17.7413330078125,-12.16488647460938,-28.55155754089355,2,10.3.35.51,10.83.46.32,1,0
2015-02-27 20:22:41.924,99,1425097359.002668,37.78774709175147,-122.3968596612326,12.39598,-1,-1,10,65,-9999,1425097361.887059,15.49829864501953,-10.63790893554688,-27.86381530761719,299.8947143554688,286.1214294433594,10,139389.224174375,-0.1621246337890625,-0.6369171142578125,-0.636505126953125,139389.1928200833,1.062585295975076,-0.9008344787435869,3.425027295768637,139389.1928200833,1.861920419223444,-0.4459954657686336,0.6382482670327851,1.056726336479187,-0.8906288743019104,3.462727069854736,0.2561381757259369,0.1015267744660378,0.1374511122703552,XTrueNorthZVertical,0.3511328134026564,0.1200680860411193,0.7014044142877017,0.6085402457289544,-0.3464396893978119,-0.5957894921302795,-0.7245787978172302,15.45640754699707,-14.28537559509277,-28.89564514160156,2,10.3.35.51,10.83.46.32,1,0
2015-02-27 20:22:41.992,100,1425097359.002668,37.78774709175147,-122.3968596612326,12.39598,-1,-1,10,65,-9999,1425097361.939991,11.88474655151367,-14.78424072265625,-28.06355285644531,290.2591552734375,276.4858703613281,10,139389.273214625,-0.2033233642578125,-0.5927276611328125,-0.696197509765625,139389.2446015417,1.779414251837927,-1.539867172843043,2.352438900423115,139389.2446015417,2.062338686709694,-0.6247217857406108,0.6282680252203523,1.773555397987366,-1.529661655426025,2.390138149261475,0.2949962913990021,-0.04972203820943832,-0.04987703636288643,XTrueNorthZVertical,0.4018197458714905,0.1020859878221555,0.7276471117543305,0.546487881532151,-0.4731884300708771,-0.587744414806366,-0.6562386751174927,11.81132411956787,-17.65432739257812,-28.75323104858398,2,10.3.35.51,10.83.46.32,1,0
2015-02-27 20:22:42.022,101,1425097359.002668,37.78774709175147,-122.3968596612326,12.39598,-1,-1,10,65,-9999,1425097361.990662,7.5552978515625,-18.59072875976562,-28.19670104980469,282.0530090332031,268.2797241210938,10,139389.3222345417,-0.7877960205078125,-0.590545654296875,-0.4852142333984375,139389.2963836667,1.328253457889783,-2.522734203696014,1.827616402303925,139389.2963836667,2.22039805655572,-0.8279920026598956,0.6224294222541066,1.322394609451294,-2.512528657913208,1.865315198898315,0.2398897707462311,0.009326006285846233,-0.07560671865940094,XTrueNorthZVertical,0.4676480771688688,0.08091725179656668,0.7259632741872453,0.4977298261115741,-0.5984408259391785,-0.5830106735229492,-0.5495153665542603,4.617506980895996,-22.60614395141602,-27.3051586151123,2,10.3.35.51,10.83.46.32,1,0
2015-02-27 20:22:42.095,102,1425097359.002668,37.78774709175147,-122.3968596612326,12.39598,-1,-1,10,65,-9999,1425097362.042686,3.328117370605469,-21.71746826171875,-27.56423187255859,277.0116577148438,263.2383728027344,10,139389.3712657084,-0.927978515625,-0.5348968505859375,-0.40960693359375,139389.348165125,0.6380095076086479,-0.9455992871906198,1.546845453847378,139389.348165125,2.330118793347623,-0.9839516316615674,0.5793481788868697,0.6321507692337036,-0.9353939294815063,1.584543943405151,-0.2762856781482697,-0.01732548139989376,0.07862713932991028,XTrueNorthZVertical,0.5153050835667574,0.05264902403548592,0.7228461970884269,0.4573643049702719,-0.6968130469322205,-0.5474786162376404,-0.4633775055408478,1.354396820068359,-23.74276351928711,-26.69040298461914,2,10.3.35.51,10.83.46.32,1,0
2015-02-27 20:22:42.121,103,1425097359.002668,37.78774709175147,-122.3968596612326,12.39598,-1,-1,10,65,-9999,1425097362.094781,-0.8649826049804688,-23.17887878417969,-26.59890747070312,272.8722839355469,259.0989990234375,10,139389.420291375,-0.7054443359375,-0.584991455078125,-0.470458984375,139389.3999464583,0.4466193053412315,0.4051126081718015,1.3687516159544,139389.3999464583,2.399368204378124,-1.018413781432506,0.5333987782119349,0.440760612487793,0.4153178036212921,1.406449794769287,-0.08486563712358475,-0.04634666442871094,0.01807894557714462,XTrueNorthZVertical,0.5216888187459913,0.04391052541637478,0.7383331837321483,0.4251784718689235,-0.7330207228660583,-0.5084629058837891,-0.4518252909183502,-1.835315704345703,-24.54132461547852,-25.9284725189209,2,10.3.35.51,10.83.46.32,1,0
2015-02-27 20:22:42.195,104,1425097359.002668,37.78774709175147,-122.3968596612326,12.39598,-1,-1,10,65,-9999,1425097362.145622,-3.541053771972656,-23.90957641601562,-25.61692047119141,267.0296936035156,253.2564086914062,10,139389.4693319583,-0.698516845703125,-0.512969970703125,-0.45556640625,139389.451728375,0.3580252569381105,-0.5537787823355128,1.519108364778094,139389.451728375,2.462184311629287,-1.048634656757893,0.4822750493072582,0.3522162139415741,-0.543611466884613,1.55685818195343,0.08934102952480316,-0.08289595693349838,-0.01978671364486217,XTrueNorthZVertical,0.5272397304863791,0.0329285905138279,0.7527450950923806,0.3928215591404819,-0.7678841352462769,-0.463795930147171,-0.4418679475784302,-4.103002548217773,-25.09016227722168,-25.13125419616699,2,10.3.35.51,10.83.46.32,1,0
2015-02-27 20:22:42.221,105,1425097359.002668,37.78774709175147,-122.3968596612326,12.39598,-1,-1,10,65,-9999,1425097362.198634,-5.944412231445312,-24.26640319824219,-25.00111389160156,261.2628479003906,247.4895477294922,10,139389.5183895417,-0.7913970947265625,-0.4715423583984375,-0.383026123046875,139389.5035100417,0.2271450041144933,-1.224205351997041,1.689169309875066,139389.451728375,2.462184311629287,-1.048634656757893,0.4822750493072582,0.3522162139415741,-0.543611466884613,1.55685818195343,0.08934102952480316,-0.08289595693349838,-0.01978671364486217,XTrueNorthZVertical,0.5272397304863791,0.0329285905138279,0.7527450950923806,0.3928215591404819,-0.7678841352462769,-0.463795930147171,-0.4418679475784302,-4.103002548217773,-25.09016227722168,-25.13125419616699,2,10.3.35.51,10.83.46.32,1,0
2015-02-27 20:22:42.299,106,1425097359.002668,37.78774709175147,-122.3968596612326,12.39598,-1,-1,10,65,-9999,1425097362.249906,-8.842086791992188,-23.82456970214844,-24.20220184326172,257.4381713867188,243.6648712158203,10,139389.5673942917,-0.8187255859375,-0.37481689453125,-0.3809661865234375,139389.5552914584,-0.2079611895182166,-0.4093611490588049,1.271836254409217,139389.5552914584,2.554261692434389,-1.179299795859475,0.3467552625884817,-0.2137674689292908,-0.3991907238960266,1.309581995010376,0.06426902860403061,-0.07953982800245285,-0.01441464759409428,XTrueNorthZVertical,0.5657874620160773,-0.02130711153652641,0.755859196878134,0.3287969134677068,-0.8693227171897888,-0.3398479819297791,-0.358861118555069,-8.971421241760254,-24.8281364440918,-24.10410690307617,2,10.3.35.51,10.83.46.32,1,0
2015-02-27 20:22:42.317,107,1425097359.002668,37.78774709175147,-122.3968596612326,12.39598,-1,-1,10,65,-9999,1425097362.304707,-11.36476135253906,-22.83894348144531,-24.03578186035156,253.3976745605469,239.6243743896484,10,139389.6164290833,-0.8053131103515625,-0.251739501953125,-0.3381805419921875,139389.6070735,-0.6916935088624653,0.9381560182599573,0.9928213943754689,139389.5552914584,2.554261692434389,-1.179299795859475,0.3467552625884817,-0.2137674689292908,-0.3991907238960266,1.309581995010376,0.06426902860403061,-0.07953982800245285,-0.01441464759409428,XTrueNorthZVertical,0.5657874620160773,-0.02130711153652641,0.755859196878134,0.3287969134677068,-0.8693227171897888,-0.3398479819297791,-0.358861118555069,-8.971421241760254,-24.8281364440918,-24.10410690307617,2,10.3.35.51,10.83.46.32,1,0
2015-02-27 20:22:42.400,108,1425097359.002668,37.78774709175147,-122.3968596612326,12.39598,-1,-1,10,65,-9999,1425097362.3556,-12.23405456542969,-21.564453125,-24.45187377929688,251.1480865478516,237.3747863769531,10,139389.66547125,-0.694061279296875,-0.23162841796875,-0.3902587890625,139389.65885475,-0.4674090060748261,0.6400907680005449,1.256817357441716,139389.6070735,2.550046926741995,-1.162482140655082,0.2870503774031159,-0.6974995732307434,0.9483265280723572,1.030566453933716,0.0855758860707283,0.01519545074552298,0.05311835929751396,XTrueNorthZVertical,0.5546641528316869,-0.04404113722865603,0.768378418872305,0.3162319436650614,-0.8802383542060852,-0.2831245362758636,-0.3808161020278931,-11.68197154998779,-23.31655311584473,-24.4499626159668,2,10.3.35.51,10.83.46.32,1,0
2015-02-27 20:22:42.414,109,1425097359.002668,37.78774709175147,-122.3968596612326,12.39598,-1,-1,10,65,-9999,1425097362.407043,-12.71131134033203,-19.96708679199219,-25.05104827880859,248.4638671875,234.6905670166016,10,139389.7144955834,-0.6795501708984375,-0.135009765625,-0.3660125732421875,139389.71063625,-0.297074288017794,-0.8740625192533473,1.514914152377328,139389.65885475,2.548541043244018,-1.112022401470065,0.2210812556683315,-0.4732150435447693,0.6502611637115479,1.294561982154846,0.1382930874824524,-0.04679807275533676,0.05043302476406097,XTrueNorthZVertical,0.529065634591358,-0.06367302954955013,0.7903275199962384,0.3023535872563661,-0.8747738003730774,-0.2192846834659576,-0.4320706129074097,-11.64359569549561,-22.43985557556152,-25.27469635009766,2,10.3.35.51,10.83.46.32,1,0
2015-02-27 20:22:42.490,110,1425097359.002668,37.78774709175147,-122.3968596612326,12.39598,-1,-1,10,65,-9999,1425097362.482475,-15.66011047363281,-17.12921142578125,-24.76811218261719,243.1804809570312,229.4071807861328,10,139389.7635497917,-0.8176116943359375,-0.02197265625,-0.307373046875,139389.7624182084,-0.205319600032967,-1.03330756821518,1.340180957463921,139389.71063625,2.563724258655771,-1.125781250384105,0.1487929083167526,-0.3028802573680878,-0.8638921976089478,1.552658438682556,0.2416300773620605,0.001500712125562131,0.05756628885865211,XTrueNorthZVertical,0.5280088743012791,-0.09137331056732173,0.797115728745411,0.2783236295205779,-0.8926310539245605,-0.1482444852590561,-0.4257150888442993,-12.0515022277832,-21.19079780578613,-26.14654922485352,2,10.3.35.51,10.83.46.32,1,0
2015-02-27 20:22:42.514,111,1425097359.002668,37.78774709175147,-122.3968596612326,12.39598,-1,-1,10,65,-9999,1425097362.482475,-15.66011047363281,-17.12921142578125,-24.76811218261719,243.1804809570312,229.4071807861328,10,139389.8125652917,-0.90106201171875,0.1348419189453125,-0.2682647705078125,139389.7624182084,-0.205319600032967,-1.03330756821518,1.340180957463921,139389.7624182084,2.583547530444827,-1.182681236164856,0.0756552049555077,-0.211125522851944,-1.023137331008911,1.377924919128418,0.1320522129535675,0.02240617386996746,0.05642371997237206,XTrueNorthZVertical,0.5441780224471486,-0.1232451412324418,0.7917088777675707,0.2487527867178415,-0.9229763150215149,-0.07558305561542511,-0.3773618340492249,-15.88273334503174,-19.07388877868652,-25.72657012939453,2,10.3.35.51,10.83.46.32,1,0
2015-02-27 20:22:42.598,112,1425097359.002668,37.78774709175147,-122.3968596612326,12.39598,-1,-1,10,65,-9999,1425097362.586605,-20.07479095458984,-13.8155517578125,-24.4185791015625,237.3327331542969,223.5594329833984,10,139389.861600625,-0.8052215576171875,0.174560546875,-0.3310546875,139389.8659811667,-0.3035468347311225,-0.2489379176307208,1.216583384957235,139389.8141998333,2.593489961950167,-1.213174952835382,0.01394052427885111,-0.318107545375824,-0.222645565867424,1.157301902770996,0.03557905927300453,0.1487819850444794,0.08174829930067062,XTrueNorthZVertical,0.5503300213021854,-0.1487626676738169,0.7898434836011473,0.2261720335511936,-0.9366410970687866,-0.01394007261842489,-0.3500130772590637,-17.32938003540039,-18.24551010131836,-25.39142990112305,2,10.3.35.51,10.83.46.32,1,0
2015-02-27 20:22:42.612,113,1425097359.002668,37.78774709175147,-122.3968596612326,12.39598,-1,-1,10,65,-9999,1425097362.586605,-20.07479095458984,-13.8155517578125,-24.4185791015625,237.3327331542969,223.5594329833984,10,139389.9106292083,-0.86822509765625,0.2295684814453125,-0.350738525390625,139389.8659811667,-0.3035468347311225,-0.2489379176307208,1.216583384957235,139389.8659811667,2.599919670944788,-1.217026209109472,-0.04840890295128598,-0.3093526363372803,-0.2387679219245911,1.254326581954956,0.1317527741193771,0.1261705458164215,0.0149763710796833,XTrueNorthZVertical,0.5453360199811453,-0.1720264395049852,0.7940594372783001,0.2061191899833765,-0.9369743466377258,0.04838999733328819,-0.3460310697555542,-18.6263256072998,-16.95100975036621,-25.37033843994141,2,10.3.35.51,10.83.46.32,1,0
2015-02-27 20:22:42.697,114,1425097359.002668,37.78774709175147,-122.3968596612326,12.39598,-1,-1,10,65,-9999,1425097362.640871,-21.76225280761719,-11.861328125,-23.96920776367188,233.3757171630859,219.6024169921875,10,139389.9596702917,-1.096343994140625,0.1732330322265625,-0.3946075439453125,139389.9177632917,-0.4341618367101678,-1.172348811883236,1.29028024285467,139389.9177632917,2.603745534436662,-1.256770423123912,-0.1148653809455456,-0.4399676024913788,-1.162178993225098,1.328023076057434,0.07660508900880814,0.1149555221199989,-0.04388388991355896,XTrueNorthZVertical,0.5534385488410649,-0.2006949298353812,0.7875803739298205,0.1820561819422886,-0.9448301792144775,0.1146129593253136,-0.306854635477066,-20.89430236816406,-14.47756385803223,-25.13481521606445,2,10.3.35.51,10.83.46.32,3,0
2015-02-27 20:22:42.708,115,1425097359.002668,37.78774709175147,-122.3968596612326,12.39598,-1,-1,10,65,-9999,1425097362.640871,-21.76225280761719,-11.861328125,-23.96920776367188,233.3757171630859,219.6024169921875,10,139390.008684625,-1.063766479492188,0.535797119140625,-0.2117919921875,139389.9695446667,-0.3719453336398457,-1.546717355798945,0.8604873219127774,139389.9695446667,2.59978130068291,-1.331568141650399,-0.1774133612152611,-0.3777509927749634,-1.536547541618347,0.898229718208313,-0.1370663791894913,0.0940236821770668,-0.1065644472837448,XTrueNorthZVertical,0.5741645144699379,-0.2317721893406269,0.7694146433128857,0.1569007655023688,-0.9562716484069824,0.1764841228723526,-0.2332335263490677,-22.38320922851562,-13.28435039520264,-24.50405502319336,2,10.3.35.51,10.83.46.32,3,0
2015-02-27 20:22:42.793,116,1425097359.002668,37.78774709175147,-122.3968596612326,12.39598,-1,-1,10,65,-9999,1425097362.771015,-26.99509429931641,-6.848358154296875,-21.05654907226562,229.5356750488281,215.7623748779297,10,139390.0577263334,-0.9374237060546875,0.3418121337890625,-0.1365814208984375,139390.0213263333,-1.071797969133987,-0.642314507510761,0.2065124298852135,139390.0213263333,2.570377593356224,-1.385982625056663,-0.2088095018497141,-1.077603578567505,-0.6321448087692261,0.2442544400691986,-0.07620774954557419,0.2982282638549805,-0.01128352619707584,XTrueNorthZVertical,0.5870355814458922,-0.2559362037574797,0.7529109856130604,0.1516934885011023,-0.9616187810897827,0.2072954028844833,-0.1797717660665512,-24.5422420501709,-11.8169469833374,-23.15100479125977,2,10.3.35.51,10.83.46.32,3,0
2015-02-27 20:22:42.807,117,1425097359.002668,37.78774709175147,-122.3968596612326,12.39598,-1,-1,10,65,-9999,1425097362.771015,-26.99509429931641,-6.848358154296875,-21.05654907226562,229.5356750488281,215.7623748779297,10,139390.1067805417,-0.916900634765625,0.375885009765625,0.0832672119140625,139390.073108125,-1.770135265967873,-0.9577438343935992,-0.1646893491782821,139390.073108125,2.493758507227966,-1.441854443188338,-0.2233595645832533,-1.775940895080566,-0.9475741982460022,-0.1269476562738419,0.06757313758134842,0.1247607246041298,0.03804936632514,XTrueNorthZVertical,0.5952100590616201,-0.2881486556376297,0.7311068381840838,0.1678633670409718,-0.9670634865760803,0.2215069830417633,-0.1253906786441803,-26.07524681091309,-9.403506278991699,-22.57402038574219,2,10.3.35.51,10.83.46.32,3,0
2015-02-27 20:22:42.894,118,1425097359.002668,37.78774709175147,-122.3968596612326,12.39598,-1,-1,10,65,-9999,1425097362.844995,-28.80187225341797,-4.367340087890625,-19.52532958984375,235.3428497314453,221.5695495605469,10,139390.155783875,-0.8839569091796875,0.29632568359375,0.1471405029296875,139390.12488975,-1.909590098553218,-0.8444164763146943,-0.1281574369251201,139390.12488975,2.395880049577681,-1.504248567019633,-0.2239247227694774,-1.915395617485046,-0.8342469930648804,-0.09041612595319748,0.0502220056951046,0.1205933094024658,0.1476173400878906,XTrueNorthZVertical,0.6025453388513575,-0.3232953920451874,0.7036129080949967,0.1932564634384164,-0.97287517786026,0.2220580577850342,-0.06483840942382812,-26.63199996948242,-8.30928897857666,-22.35224914550781,2,10.3.35.51,10.83.46.32,3,0
2015-02-27 20:22:42.905,119,1425097359.002668,37.78774709175147,-122.3968596612326,12.39598,-1,-1,10,65,-9999,1425097362.896375,-30.421142578125,-2.549072265625,-18.27705383300781,239.3921661376953,225.6188659667969,10,139390.2048094583,-1.010711669921875,0.3374786376953125,0.19775390625,139390.1766710833,-1.482576186208823,-1.392945369193334,-0.2349509955856246,139390.1766710833,2.308737090353775,-1.578517965766039,-0.2231064816657785,-1.488381624221802,-1.382776021957397,-0.1972101032733917,0.06318315863609314,0.1237257868051529,0.1418075859546661,XTrueNorthZVertical,0.6134167621847968,-0.3570503700338588,0.6721349965031234,0.2108777764320431,-0.975185751914978,0.2212601751089096,0.007530181668698788,-27.41142272949219,-6.5482177734375,-21.99239730834961,2,10.3.35.51,10.83.46.32,3,0
2015-02-27 20:22:42.991,120,1425097359.002668,37.78774709175147,-122.3968596612326,12.39598,-1,-1,10,65,-9999,1425097362.948766,-32.10861206054688,-0.866790771484375,-16.36302947998047,245.3547668457031,231.5814666748047,10,139390.2538544167,-1.129135131835938,0.28387451171875,0.2629852294921875,139390.2284532083,-1.161866609832685,-1.639709082110114,-0.4409118848090827,139390.2284532083,2.243724708225373,-1.671673737850887,-0.2016658329907352,-1.167671918869019,-1.629539847373962,-0.4031713604927063,-0.1058587208390236,0.09794660657644272,0.136518195271492,XTrueNorthZVertical,0.6356574471896547,-0.3811461230764346,0.6334534916652422,0.2222698755590118,-0.9747534394264221,0.2003016769886017,0.0986655130982399,-29.5021858215332,-4.718063831329346,-19.62884712219238,2,10.3.35.51,10.83.46.32,3,0
2015-02-27 20:22:43.003,121,1425097359.002668,37.78774709175147,-122.3968596612326,12.39598,-1,-1,10,65,-9999,1425097362.948766,-32.10861206054688,-0.866790771484375,-16.36302947998047,245.3547668457031,231.5814666748047,10,139390.302877125,-1.30694580078125,0.3302764892578125,0.310699462890625,139390.2802345417,-0.7770073417509357,-0.8944338373796905,-0.2647035649678808,139390.2802345417,2.196262169586273,-1.743495793199917,-0.1812510374659982,-0.7828126549720764,-0.8842646479606628,-0.2269634008407593,-0.1874460279941559,0.1212839335203171,0.09801674634218216,XTrueNorthZVertical,0.6522192032469953,-0.3989032109094314,0.6021231185582129,0.2300740540076244,-0.9689871072769165,0.1802602559328079,0.1690273284912109,-30.33960914611816,-4.399932861328125,-18.38694000244141,2,10.3.35.51,10.83.46.32,3,0
2015-02-27 20:22:43.063,122,1425097359.002668,37.78774709175147,-122.3968596612326,12.39598,-1,-1,10,65,-9999,1425097363.053838,-34.66536712646484,0.288787841796875,-12.36853790283203,253.7792358398438,240.0059356689453,10,139390.3519216667,-0.96978759765625,0.274383544921875,0.307861328125,139390.3320161667,-0.5449080590605679,-0.9050904764816425,-0.4091899078007128,139390.3320161667,2.168511127044492,-1.790583887290721,-0.1566489462889386,-0.5507133007049561,-0.8949213624000549,-0.3714501261711121,-0.2946883141994476,0.1593290716409683,0.08968570828437805,XTrueNorthZVertical,0.6648405359189664,-0.4070177332147608,0.5795853979923544,0.2374960506398254,-0.9639939665794373,0.1560090631246567,0.2153527438640594,-31.08897018432617,-4.086782932281494,-17.16697311401367,2,10.3.35.51,10.83.46.32,3,0
2015-02-27 20:22:43.107,123,1425097359.002668,37.78774709175147,-122.3968596612326,12.39598,-1,-1,10,65,-9999,1425097363.053838,-34.66536712646484,0.288787841796875,-12.36853790283203,253.7792358398438,240.0059356689453,10,139390.4010506667,-1.049163818359375,0.084320068359375,0.3521575927734375,139390.3837980417,-0.1371554593001708,-0.7920014713202997,0.7456030798606123,139390.3320161667,2.168511127044492,-1.790583887290721,-0.1566489462889386,-0.5507133007049561,-0.8949213624000549,-0.3714501261711121,-0.2946883141994476,0.1593290716409683,0.08968570828437805,XTrueNorthZVertical,0.6648405359189664,-0.4070177332147608,0.5795853979923544,0.2374960506398254,-0.9639939665794373,0.1560090631246567,0.2153527438640594,-31.08897018432617,-4.086782932281494,-17.16697311401367,2,10.3.35.51,10.83.46.32,3,0
2015-02-27 20:22:43.202,124,1425097359.002668,37.78774709175147,-122.3968596612326,12.39598,-1,-1,10,65,-9999,1425097363.181156,-36.33577728271484,2.531890869140625,-8.041168212890625,250.9259185791016,237.1526184082031,10,139390.449975375,-0.993408203125,0.156402587890625,0.3490447998046875,139390.4355796667,-0.03320935247717909,-1.266568521773041,1.283377062993076,139390.4355796667,2.130280229621403,-1.890275410099526,-0.2169359566560323,-0.03901452198624611,-1.256399631500244,1.321116089820862,-0.1193926408886909,-0.1150339469313622,0.05943923071026802,XTrueNorthZVertical,0.6742630811950813,-0.4457854105771812,0.5518367059922853,0.2052337593116771,-0.9271466732025146,0.2152384072542191,0.3067106604576111,-32.54496765136719,-2.894482135772705,-14.50440979003906,2,10.3.35.51,10.83.46.32,3,0
2015-02-27 20:22:43.210,125,1425097359.002668,37.78774709175147,-122.3968596612326,12.39598,-1,-1,10,65,-9999,1425097363.181156,-36.33577728271484,2.531890869140625,-8.041168212890625,250.9259185791016,237.1526184082031,10,139390.49899325,-0.89715576171875,0.214752197265625,0.4142913818359375,139390.487361,-0.0513116573547747,-0.889276625928752,1.578464366521562,139390.487361,2.102051312279386,-1.954372269341738,-0.2864524345413343,-0.05714479833841324,-0.8791146278381348,1.616239190101624,-0.03100187890231609,-0.08662814646959305,0.02736299112439156,XTrueNorthZVertical,0.6724306794680904,-0.4767931995373339,0.5392801975220516,0.1722848679756334,-0.8895456194877625,0.2825509905815125,0.3589895367622375,-33.38822174072266,-0.9770784378051758,-12.73588562011719,2,10.3.35.51,10.83.46.32,3,0
2015-02-27 20:22:43.262,126,1425097359.002668,37.78774709175147,-122.3968596612326,12.39598,-1,-1,10,65,-9999,1425097363.232812,-36.77894592285156,5.114837646484375,-6.576515197753906,244.1547546386719,230.3814544677734,10,139390.548026,-0.759246826171875,0.271148681640625,0.453521728515625,139390.539143125,-0.1684827558349909,-0.3947332041393267,1.712975040543175,139390.487361,2.102051312279386,-1.954372269341738,-0.2864524345413343,-0.05714479833841324,-0.8791146278381348,1.616239190101624,-0.03100187890231609,-0.08662814646959305,0.02736299112439156,XTrueNorthZVertical,0.6724306794680904,-0.4767931995373339,0.5392801975220516,0.1722848679756334,-0.8895456194877625,0.2825509905815125,0.3589895367622375,-33.38822174072266,-0.9770784378051758,-12.73588562011719,2,10.3.35.51,10.83.46.32,3,0
2015-02-27 20:22:43.297,127,1425097359.002668,37.78774709175147,-122.3968596612326,12.39598,-1,-1,10,65,-9999,1425097363.286118,-36.38691711425781,8.462493896484375,-5.16180419921875,240.7452087402344,226.9719085693359,10,139390.5970385417,-0.6771087646484375,0.5190887451171875,0.53448486328125,139390.5909245,-0.05391116889480104,-0.4683304598119934,1.550717423756244,139390.539143125,2.060100061417578,-1.994981446702475,-0.3624991446840505,-0.1743158251047134,-0.3845713436603546,1.750749468803406,0.06558731943368912,-0.1050850972533226,0.06588289141654968,XTrueNorthZVertical,0.6581190536279173,-0.5092100967870238,0.5353623329837949,0.1448155447179721,-0.8521474003791809,0.3546120822429657,0.3848312199115753,-33.96891021728516,3.205616474151611,-10.66620540618896,2,10.3.35.51,10.83.46.32,3,0
2015-02-27 20:22:43.397,128,1425097359.002668,37.78774709175147,-122.3968596612326,12.39598,-1,-1,10,65,-9999,1425097363.336817,-35.41533660888672,11.30038452148438,-4.346260070800781,237.0208587646484,223.24755859375,10,139390.6460734167,-0.78497314453125,0.6186065673828125,0.6483306884765625,139390.642706125,0.1521985910335924,-0.4566178773378249,1.306632850896084,139390.642706125,1.98095986422487,-2.072087881223466,-0.502661858942556,0.146365612745285,-0.4464561939239502,1.344406485557556,0.006491800304502249,0.1240293458104134,0.227627620100975,XTrueNorthZVertical,0.6274419880922496,-0.5629156940283278,0.5301260151746779,0.09169984742757023,-0.7684851884841919,0.4817598462104797,0.4211150407791138,-33.63600158691406,7.500041484832764,-9.502606391906738,2,10.3.35.51,10.83.46.32,3,0
2015-02-27 20:22:43.400,129,1425097359.002668,37.78774709175147,-122.3968596612326,12.39598,-1,-1,10,65,-9999,1425097363.393513,-35.05739593505859,13.83233642578125,-3.830307006835938,229.8339996337891,216.0606994628906,10,139390.6950961667,-0.70654296875,0.6353759765625,0.5418548583984375,139390.642706125,0.1521985910335924,-0.4566178773378249,1.306632850896084,139390.642706125,1.98095986422487,-2.072087881223466,-0.502661858942556,0.146365612745285,-0.4464561939239502,1.344406485557556,0.006491800304502249,0.1240293458104134,0.227627620100975,XTrueNorthZVertical,0.6274419880922496,-0.5629156940283278,0.5301260151746779,0.09169984742757023,-0.7684851884841919,0.4817598462104797,0.4211150407791138,-33.63600158691406,7.500041484832764,-9.502606391906738,2,10.3.35.51,10.83.46.32,3,0
2015-02-27 20:22:43.461,130,1425097359.002668,37.78774709175147,-122.3968596612326,12.39598,-1,-1,10,65,-9999,1425097363.393513,-35.05739593505859,13.83233642578125,-3.830307006835938,229.8339996337891,216.0606994628906,10,139390.74414475,-0.6517486572265625,0.60223388671875,0.5092926025390625,139390.746269625,0.3826262075077174,0.5455959535701354,0.5506623512279021,139390.694488,1.961010348497142,-2.097443800850373,-0.5546087585794316,0.3313552439212799,-0.01984320767223835,0.8476901054382324,0.007985839620232582,0.1095892041921616,0.1340445578098297,XTrueNorthZVertical,0.6166097568410802,-0.5774428904042038,0.5305439345953527,0.06982285114398928,-0.7349145412445068,0.5266107320785522,0.4272957742214203,-33.04101181030273,10.57396125793457,-8.626338005065918,2,10.3.35.51,10.83.46.32,3,0
2015-02-27 20:22:43.497,131,1425097359.002668,37.78774709175147,-122.3968596612326,12.39598,-1,-1,10,65,-9999,1425097363.465726,-33.98355865478516,15.88851928710938,-4.046684265136719,222.9505615234375,209.1772613525391,10,139390.7931640417,-0.57244873046875,0.6013031005859375,0.443359375,139390.746269625,0.3826262075077174,0.5455959535701354,0.5506623512279021,139390.746269625,1.961310191661719,-2.080667765382815,-0.5937377467264208,0.3767933547496796,0.5557574033737183,0.5884352326393127,0.07168227434158325,0.04277091100811958,0.1047573015093803,XTrueNorthZVertical,0.6029714565905319,-0.5819734301325621,0.5423863604904917,0.05957655661819559,-0.7234309315681458,0.5594629645347595,0.4045352935791016,-32.75609588623047,11.2619514465332,-8.839534759521484,2,10.3.35.51,10.83.46.32,3,0
2015-02-27 20:22:43.561,132,1425097359.002668,37.78774709175147,-122.3968596612326,12.39598,-1,-1,10,65,-9999,1425097363.518053,-33.25061798095703,16.72119140625,-4.995368957519531,226.7526550292969,212.9793548583984,10,139390.8422015417,-0.5610809326171875,0.6642608642578125,0.4083404541015625,139390.798051,0.3735155334185564,0.6219549072932143,0.4765817318173859,139390.798051,1.964505885816538,-2.045357123924379,-0.6261408998251485,0.3676827251911163,0.6321162581443787,0.5143542289733887,0.1483034193515778,0.01528098061680794,0.07309682667255402,XTrueNorthZVertical,0.5863053705338368,-0.584275008681813,0.5582718002474459,0.05658007378303272,-0.7207521796226501,0.5860221385955811,0.3702625334262848,-33.25355529785156,15.85867309570312,-4.942911148071289,2,10.3.35.51,10.83.46.32,3,0
2015-02-27 20:22:43.593,133,1425097359.002668,37.78774709175147,-122.3968596612326,12.39598,-1,-1,10,65,-9999,1425097363.569554,-32.75630187988281,17.48590087890625,-6.276931762695312,225.5392608642578,211.7659606933594,10,139390.891221875,-0.5903472900390625,0.6664886474609375,0.4141845703125,139390.8498329167,0.4368151441042137,0.1000285968594852,0.3404124410688714,139390.8498329167,1.974932414257991,-2.021352147712398,-0.6543218653110451,0.4309824109077454,0.1101898550987244,0.378184586763382,0.1531966179609299,0.05563955381512642,0.06281528621912003,XTrueNorthZVertical,0.5755479038875069,-0.5843861683304465,0.5698673180586452,0.04988624450861151,-0.7142775654792786,0.6086212992668152,0.3455251753330231,-32.42029190063477,16.89154052734375,-6.732711791992188,2,10.3.35.51,10.83.46.32,3,0
2015-02-27 20:22:43.691,134,1425097359.002668,37.78774709175147,-122.3968596612326,12.39598,-1,-1,10,65,-9999,1425097363.672799,-31.92109680175781,17.67279052734375,-7.159049987792969,219.0974426269531,205.3241424560547,10,139390.9402515833,-0.598480224609375,0.74530029296875,0.355987548828125,139390.9533960834,0.7662588235913759,0.1653000120162372,-0.5339749838374656,139390.9016145833,1.996735631095674,-2.007207583685839,-0.6786995030242665,0.577517569065094,0.02728580497205257,0.1732917577028275,0.09302324056625366,0.04293407127261162,0.08727286010980606,XTrueNorthZVertical,0.5716571134610048,-0.5811341120686546,0.5779396716801537,0.03843182672751998,-0.7054347395896912,0.6277812719345093,0.3290174305438995,-32.22064971923828,17.15087890625,-7.028925895690918,2,10.3.35.51,10.83.46.32,3,0
2015-02-27 20:22:43.693,135,1425097359.002668,37.78774709175147,-122.3968596612326,12.39598,-1,-1,10,65,-9999,1425097363.672799,-31.92109680175781,17.67279052734375,-7.159049987792969,219.0974426269531,205.3241424560547,10,139390.9892759167,-0.5269012451171875,0.7037506103515625,0.321258544921875,139390.9533960834,0.7662588235913759,0.1653000120162372,-0.5339749838374656,139390.9533960834,2.040657230431626,-1.974668943511724,-0.6840713202852682,0.7604262232780457,0.1754610538482666,-0.4962036311626434,0.1453931629657745,0.1175429075956345,0.04702926427125931,XTrueNorthZVertical,0.5734214771362234,-0.5687439553171412,0.5887568246121858,0.03291664183161867,-0.7126538753509521,0.6319535374641418,0.3045637607574463,-32.06833267211914,17.23882102966309,-7.49492359161377,2,10.3.35.51,10.83.46.32,3,0
2015-02-27 20:22:43.748,136,1425097359.002668,37.78774709175147,-122.3968596612326,12.39598,-1,-1,10,65,-9999,1425097363.725402,-32.279052734375,16.39834594726562,-7.608436584472656,216.7168579101562,202.9435577392578,10,139391.0384264167,-0.497314453125,0.6696624755859375,0.28790283203125,139391.005178125,0.7833262240693667,0.1135278941089879,-1.267847904360715,139391.005178125,2.107791471525644,-1.922371838104903,-0.6582260774597674,0.7774936556816101,0.1236888468265533,-1.230076909065247,0.2247755229473114,0.08831296116113663,0.04316797107458115,XTrueNorthZVertical,0.5830555396493149,-0.5442986490780239,0.6019857851920011,0.03739403308850989,-0.742689311504364,0.6117144823074341,0.2724295556545258,-32.63771820068359,15.43927574157715,-8.839524269104004,2,10.3.35.51,10.83.46.32,3,0
2015-02-27 20:22:43.794,137,1425097359.002668,37.78774709175147,-122.3968596612326,12.39598,-1,-1,10,65,-9999,1425097363.776356,-33.55744171142578,13.96832275390625,-8.324119567871094,219.2588500976562,205.4855499267578,10,139391.0873460417,-0.5880126953125,0.5732879638671875,0.264923095703125,139391.0569594167,0.3967249823185969,-0.2162188531102253,-2.138317819303545,139391.0569594167,2.177695933631222,-1.884228139694891,-0.5860615277429888,0.3908924758434296,-0.206057995557785,-2.100547075271606,0.2832285761833191,0.1006176993250847,0.02738253585994244,XTrueNorthZVertical,0.6073896566830506,-0.5094256846197325,0.6071682598137126,0.05394406423992849,-0.7925364375114441,0.5530840754508972,0.2568734586238861,-33.22454833984375,13.87310791015625,-9.240950584411621,2,10.3.35.51,10.83.46.32,3,0
2015-02-27 20:22:43.846,138,1425097359.002668,37.78774709175147,-122.3968596612326,12.39598,-1,-1,10,65,-9999,1425097363.828304,-34.42674255371094,10.24679565429688,-8.207611083984375,222.2217254638672,208.4484252929688,10,139391.1364630834,-0.82269287109375,0.4769439697265625,0.285888671875,139391.1087410833,-0.2259676205965693,-0.2740158403515609,-2.754685414629773,139391.1087410833,2.225520278030712,-1.875050705090786,-0.4690725310743399,-0.2318000495433807,-0.2638550996780396,-2.716915130615234,0.1618104577064514,0.09045179933309555,0.0283240657299757,XTrueNorthZVertical,0.6423992357915318,-0.4700371596556531,0.5990884030167973,0.08649483658494356,-0.8510194420814514,0.4520591795444489,0.2672234177589417,-34.40914154052734,10.60942649841309,-9.229296684265137,2,10.3.35.51,10.83.46.32,3,0
2015-02-27 20:22:43.892,139,1425097359.002668,37.78774709175147,-122.3968596612326,12.39598,-1,-1,10,65,-9999,1425097363.880019,-35.46649169921875,5.87957763671875,-7.858085632324219,234.4831390380859,220.7098388671875,10,139391.1853974584,-0.872802734375,0.29150390625,0.36859130859375,139391.1605229167,-0.6365018921155541,-0.07519089126897019,-3.314305308184157,139391.1605229167,2.247303494665716,-1.876248995322645,-0.3200802353117261,-0.6423395276069641,-0.06503468006849289,-3.276529550552368,0.05398424342274666,0.1063625290989876,0.01851918920874596,XTrueNorthZVertical,0.6771284695270569,-0.4292116137704874,0.5819231751073027,0.1365277467084484,-0.9052720665931702,0.3146427273750305,0.2854511439800262,-36.03712463378906,3.409409046173096,-8.45166015625,2,10.3.35.51,10.83.46.32,3,0
2015-02-27 20:22:43.945,140,1425097359.002668,37.78774709175147,-122.3968596612326,12.39598,-1,-1,10,65,-9999,1425097363.932157,-36.01192474365234,0.407806396484375,-8.091102600097656,249.9087524414062,236.1354522705078,10,139391.2345737917,-0.9610748291015625,0.013519287109375,0.4117431640625,139391.2123044167,-0.7932483633426749,0.4571414548081345,-3.250400360982725,139391.2123044167,2.261003758830117,-1.869892026390966,-0.1561283084955825,-0.7990913987159729,0.4672771692276001,-3.212603807449341,0.02465325407683849,0.02899923548102379,0.09073323756456375,XTrueNorthZVertical,0.7058772745881269,-0.3837621180020112,0.5623287945261307,0.1955766290772177,-0.9439800381660461,0.1554947793483734,0.2910721898078918,-36.227783203125,0.1688861846923828,-8.321542739868164,2,10.3.35.51,10.83.46.32,3,0
2015-02-27 20:22:43.994,141,1425097359.002668,37.78774709175147,-122.3968596612326,12.39598,-1,-1,10,65,-9999,1425097363.983812,-35.24489593505859,-5.386871337890625,-9.372673034667969,257.5477294921875,243.7744445800781,10,139391.283485625,-1.003250122070312,-0.1060638427734375,0.3247528076171875,139391.2640859167,-0.3197452457454205,1.158208758075461,-3.163752284388125,139391.2640859167,2.273686981931749,-1.82301453536295,0.004063346795437312,-0.325587123632431,1.16834282875061,-3.12595534324646,-0.05708317458629608,-0.09426429867744446,0.113517090678215,XTrueNorthZVertical,0.7176856026636472,-0.3312138916443471,0.5551014692757362,0.2590117246512462,-0.9683532118797302,-0.004063335712999105,0.24955053627491,-35.78495788574219,-4.727531433105469,-8.877852439880371,2,10.3.35.51,10.83.46.32,3,0
2015-02-27 20:22:44.042,142,1425097359.002668,37.78774709175147,-122.3968596612326,12.39598,-1,-1,10,65,-9999,1425097364.036362,-33.45517730712891,-11.11358642578125,-11.22012329101562,264.2937622070312,250.5204772949219,10,139391.3325310833,-0.8806304931640625,-0.23956298828125,0.29437255859375,139391.3158679167,0.6895374136439371,1.016194095050331,-3.004184193986065,139391.3158679167,2.320714885841914,-1.773875623681688,0.1531338048408539,0.6836956143379211,1.026328086853027,-2.966387748718262,0.07751612365245819,0.0122161852195859,0.1061090379953384,XTrueNorthZVertical,0.7279626110543138,-0.2640710309069964,0.5539603423684361,0.3057202113264947,-0.9679885506629944,-0.152536004781723,0.1993261426687241,-32.90958023071289,-12.72799873352051,-11.69129753112793,2,10.3.35.51,10.83.46.32,3,0
2015-02-27 20:22:44.094,143,1425097359.002668,37.78774709175147,-122.3968596612326,12.39598,-1,-1,10,65,-9999,1425097364.036362,-33.45517730712891,-11.11358642578125,-11.22012329101562,264.2937622070312,250.5204772949219,10,139391.3815585834,-0.8159027099609375,-0.3525390625,0.1540069580078125,139391.3676494583,1.330542444846706,0.8679473687583075,-2.629736287869872,139391.3158679167,2.320714885841914,-1.773875623681688,0.1531338048408539,0.6836956143379211,1.026328086853027,-2.966387748718262,0.07751612365245819,0.0122161852195859,0.1061090379953384,XTrueNorthZVertical,0.7279626110543138,-0.2640710309069964,0.5539603423684361,0.3057202113264947,-0.9679885506629944,-0.152536004781723,0.1993261426687241,-32.90958023071289,-12.72799873352051,-11.69129753112793,2,10.3.35.51,10.83.46.32,3,0
2015-02-27 20:22:44.140,144,1425097359.002668,37.78774709175147,-122.3968596612326,12.39598,-1,-1,10,65,-9999,1425097364.088132,-30.89841461181641,-16.24554443359375,-12.45175933837891,272.40185546875,258.6285705566406,10,139391.4306145833,-0.928863525390625,-0.6516265869140625,0.116119384765625,139391.419431125,1.617543592357384,0.1938490989018867,-1.985726944641384,139391.419431125,2.499357503737111,-1.746672779833278,0.3779367884972827,1.611701846122742,0.2039828896522522,-1.947931051254272,0.0935722142457962,-0.1672207117080688,-0.06051124259829521,XTrueNorthZVertical,0.7524292511976938,-0.1231330669003721,0.5531492323662026,0.3357296196319841,-0.9150901436805725,-0.3690036535263062,0.1626230627298355,-28.68636703491211,-20.02297401428223,-12.56589508056641,2,10.3.35.51,10.83.46.32,3,0
2015-02-27 20:22:44.194,145,1425097359.002668,37.78774709175147,-122.3968596612326,12.39598,-1,-1,10,65,-9999,1425097364.139238,-27.52347564697266,-21.24151611328125,-12.118896484375,271.9494018554688,258.1761169433594,10,139391.47963825,-1.224807739257812,-0.6419219970703125,0.2308197021484375,139391.4712129583,1.421813502777575,0.7697033561452843,-0.9565153181827456,139391.419431125,2.499357503737111,-1.746672779833278,0.3779367884972827,1.611701846122742,0.2039828896522522,-1.947931051254272,0.0935722142457962,-0.1672207117080688,-0.06051124259829521,XTrueNorthZVertical,0.7524292511976938,-0.1231330669003721,0.5531492323662026,0.3357296196319841,-0.9150901436805725,-0.3690036535263062,0.1626230627298355,-28.68636703491211,-20.02297401428223,-12.56589508056641,2,10.3.35.51,10.83.46.32,3,0
2015-02-27 20:22:44.239,146,1425097359.002668,37.78774709175147,-122.3968596612326,12.39598,-1,-1,10,65,-9999,1425097364.190704,-24.67694854736328,-25.33686828613281,-11.13691711425781,272.5809020996094,258.8076171875,10,139391.52879275,-0.959136962890625,-0.5098724365234375,0.14459228515625,139391.5229945834,0.6079165862390796,1.399950548124678,-0.04499517188132476,139391.4712129583,2.597686601534566,-1.76747605783832,0.4302058754760853,1.416015863418579,0.7797984480857849,-0.9186678528785706,-0.314453125,-0.2759199738502502,0.03664066269993782,XTrueNorthZVertical,0.7639052550782349,-0.07247592218989946,0.5525488594576633,0.3254008925408565,-0.891357421875,-0.4170579314231873,0.177607998251915,-25.31738471984863,-25.09621047973633,-10.53275871276855,2,10.3.35.51,10.83.46.32,3,0
2015-02-27 20:22:44.291,147,1425097359.002668,37.78774709175147,-122.3968596612326,12.39598,-1,-1,10,65,-9999,1425097364.242947,-22.90426635742188,-27.71588134765625,-10.97047424316406,268.3334655761719,254.5601806640625,10,139391.5777144167,-0.7998046875,-0.5273895263671875,0.1391143798828125,139391.5747759583,0.2035555221268985,1.272401643508641,0.198699514195248,139391.5229945834,2.655241104673621,-1.728066408918771,0.4429241014561889,0.6021190285682678,1.410045504570007,-0.007148109376430511,-0.1457342058420181,-0.1024073734879494,-0.004011898301541805,XTrueNorthZVertical,0.7544128523699238,-0.04019541694135383,0.5746556753597246,0.3146687343868385,-0.8923517465591431,-0.4285832345485687,0.1415088474750519,-24.40031623840332,-26.09890365600586,-10.25673675537109,2,10.3.35.51,10.83.46.32,3,0
2015-02-27 20:22:44.337,148,1425097359.002668,37.78774709175147,-122.3968596612326,12.39598,-1,-1,10,65,-9999,1425097364.29474,-21.55770111083984,-28.27667236328125,-11.61958312988281,264.7723083496094,250.9990081787109,10,139391.6267631667,-1.001663208007812,-0.45843505859375,0.056976318359375,139391.6265580833,0.05005704216523837,1.270987504969809,0.2185816096293436,139391.5747759583,2.672393612327723,-1.665063087988639,0.4366483440634951,0.197758212685585,1.282496690750122,0.23654605448246,0.1288202255964279,-0.08712036162614822,0.04061987996101379,XTrueNorthZVertical,0.7361847360893397,-0.026074073318002,0.60179259210701,0.3085414625663344,-0.9021509289741516,-0.4229046702384949,0.08529564738273621,-23.55561637878418,-26.58963394165039,-10.94774627685547,2,10.3.35.51,10.83.46.32,3,0
